"success","timeout","failed_images","failed_audio","failed_video","trial_type","trial_index","time_elapsed","internal_node_id","STUDY_ID","PROLIFIC_PID","SESSION_ID","first_target","second_target","practice_loops","comprehension_visits","presence_key","view_history","rt","stimulus","response","RT","context_string","context_img","max_p","hide_proportion","descend","test_part","present","target","correct_response","correct","confidence","confidence_RT","question_order"
"true","false","[]","[]","[]","preload","0","128","0.0-0.0","6645e7e1762bc0cf47e364f6","641359b5040c453203e2c088","66460ce736c0bd14aafa10b3","A","S","1","2","f","","","","","","","","","","","","","","","","","",""
"true","","","","","fullscreen","1","2731","0.0-1.0","6645e7e1762bc0cf47e364f6","641359b5040c453203e2c088","66460ce736c0bd14aafa10b3","A","S","1","2","f","","","","","","","","","","","","","","","","","",""
"","","","","","instructions","2","15461","0.0-2.0","6645e7e1762bc0cf47e364f6","641359b5040c453203e2c088","66460ce736c0bd14aafa10b3","A","S","1","2","f","[{""page_index"":0,""viewing_time"":2395},{""page_index"":1,""viewing_time"":2261},{""page_index"":2,""viewing_time"":8071}]","12727","","","","","","","","","","","","","","","",""
"","","","","","html-keyboard-response","3","16140","0.0-3.0-1.0-0.0","6645e7e1762bc0cf47e364f6","641359b5040c453203e2c088","66460ce736c0bd14aafa10b3","A","S","1","2","f","","null","<div style=""font-size:60px;"">+</div>","null","","","","","","","","","","","","","",""
"","","","","","noisyLetter","4","29083","0.0-3.0-1.0-1.0","6645e7e1762bc0cf47e364f6","641359b5040c453203e2c088","66460ce736c0bd14aafa10b3","A","S","1","2","f","","","","f","12510.80000000447","","","0.35","0","false","practice","0","A","g","false","","",""
"","","","","","html-keyboard-response","5","32089","0.0-3.0-1.0-2.0","6645e7e1762bc0cf47e364f6","641359b5040c453203e2c088","66460ce736c0bd14aafa10b3","A","S","1","2","f","","155","<div style=""width:300px;height:56px;border:0px;font-size:30px;text-align:center"">Wrong. This was just noise.</div>","g","","","","","","","","","","","","","",""
"","","","","","html-keyboard-response","6","32835","0.0-3.0-1.0-0.1","6645e7e1762bc0cf47e364f6","641359b5040c453203e2c088","66460ce736c0bd14aafa10b3","A","S","1","2","f","","null","<div style=""font-size:60px;"">+</div>","null","","","","","","","","","","","","","",""
"","","","","","noisyLetter","7","42169","0.0-3.0-1.0-1.1","6645e7e1762bc0cf47e364f6","641359b5040c453203e2c088","66460ce736c0bd14aafa10b3","A","S","1","2","f","","","","g","8919.19999999553","","","0.35","0","false","practice","1","A","f","false","","",""
"","","","","","html-keyboard-response","8","45171","0.0-3.0-1.0-2.1","6645e7e1762bc0cf47e364f6","641359b5040c453203e2c088","66460ce736c0bd14aafa10b3","A","S","1","2","f","","null","<div style=""width:300px;height:56px;border:0px;font-size:30px;text-align:center"">Wrong. You missed the letter.</div>","null","","","","","","","","","","","","","",""
"","","","","","html-keyboard-response","9","46008","0.0-3.0-1.0-0.2","6645e7e1762bc0cf47e364f6","641359b5040c453203e2c088","66460ce736c0bd14aafa10b3","A","S","1","2","f","","null","<div style=""font-size:60px;"">+</div>","null","","","","","","","","","","","","","",""
"","","","","","noisyLetter","10","53120","0.0-3.0-1.0-1.2","6645e7e1762bc0cf47e364f6","641359b5040c453203e2c088","66460ce736c0bd14aafa10b3","A","S","1","2","f","","","","g","6691.5999999940395","","","0.35","0","false","practice","1","A","f","false","","",""
"","","","","","html-keyboard-response","11","56123","0.0-3.0-1.0-2.2","6645e7e1762bc0cf47e364f6","641359b5040c453203e2c088","66460ce736c0bd14aafa10b3","A","S","1","2","f","","714","<div style=""width:300px;height:56px;border:0px;font-size:30px;text-align:center"">Wrong. You missed the letter.</div>","g","","","","","","","","","","","","","",""
"","","","","","html-keyboard-response","12","56784","0.0-3.0-1.0-0.3","6645e7e1762bc0cf47e364f6","641359b5040c453203e2c088","66460ce736c0bd14aafa10b3","A","S","1","2","f","","null","<div style=""font-size:60px;"">+</div>","null","","","","","","","","","","","","","",""
"","","","","","noisyLetter","13","59100","0.0-3.0-1.0-1.3","6645e7e1762bc0cf47e364f6","641359b5040c453203e2c088","66460ce736c0bd14aafa10b3","A","S","1","2","f","","","","f","1874.7000000029802","","","0.35","0","false","practice","0","A","g","false","","",""
"","","","","","html-keyboard-response","14","62102","0.0-3.0-1.0-2.3","6645e7e1762bc0cf47e364f6","641359b5040c453203e2c088","66460ce736c0bd14aafa10b3","A","S","1","2","f","","824","<div style=""width:300px;height:56px;border:0px;font-size:30px;text-align:center"">Wrong. This was just noise.</div>","f","","","","","","","","","","","","","",""
"","","","","","instructions","15","69111","0.0-3.1-0.1-0.1","6645e7e1762bc0cf47e364f6","641359b5040c453203e2c088","66460ce736c0bd14aafa10b3","A","S","1","2","f","[{""page_index"":0,""viewing_time"":7007}]","7008","","","","","","","","","","","","","","","",""
"","","","","","html-keyboard-response","16","70014","0.0-3.1-1.1-0.4","6645e7e1762bc0cf47e364f6","641359b5040c453203e2c088","66460ce736c0bd14aafa10b3","A","S","1","2","f","","null","<div style=""font-size:60px;"">+</div>","null","","","","","","","","","","","","","",""
"","","","","","noisyLetter","17","81676","0.0-3.1-1.1-1.4","6645e7e1762bc0cf47e364f6","641359b5040c453203e2c088","66460ce736c0bd14aafa10b3","A","S","1","2","f","","","","g","11337.10000000149","","","0.35","0","false","practice","0","A","g","true","","",""
"","","","","","html-keyboard-response","18","83181","0.0-3.1-1.1-2.4","6645e7e1762bc0cf47e364f6","641359b5040c453203e2c088","66460ce736c0bd14aafa10b3","A","S","1","2","f","","null","<div style=""width:300px;height:56px;border:0px;font-size:30px;text-align:center"">Correct! This was just noise.</div>","null","","","","","","","","","","","","","",""
"","","","","","html-keyboard-response","19","83924","0.0-3.1-1.1-0.5","6645e7e1762bc0cf47e364f6","641359b5040c453203e2c088","66460ce736c0bd14aafa10b3","A","S","1","2","f","","null","<div style=""font-size:60px;"">+</div>","null","","","","","","","","","","","","","",""
"","","","","","noisyLetter","20","90308","0.0-3.1-1.1-1.5","6645e7e1762bc0cf47e364f6","641359b5040c453203e2c088","66460ce736c0bd14aafa10b3","A","S","1","2","f","","","","f","5990.60000000149","","","0.35","0","false","practice","1","A","f","true","","",""
"","","","","","html-keyboard-response","21","91810","0.0-3.1-1.1-2.5","6645e7e1762bc0cf47e364f6","641359b5040c453203e2c088","66460ce736c0bd14aafa10b3","A","S","1","2","f","","null","<div style=""width:300px;height:56px;font-size:30px;text-align:center;"">Correct! You detected the letter.</div>","null","","","","","","","","","","","","","",""
"","","","","","html-keyboard-response","22","92457","0.0-3.1-1.1-0.6","6645e7e1762bc0cf47e364f6","641359b5040c453203e2c088","66460ce736c0bd14aafa10b3","A","S","1","2","f","","null","<div style=""font-size:60px;"">+</div>","null","","","","","","","","","","","","","",""
"","","","","","noisyLetter","23","99455","0.0-3.1-1.1-1.6","6645e7e1762bc0cf47e364f6","641359b5040c453203e2c088","66460ce736c0bd14aafa10b3","A","S","1","2","f","","","","g","6652.29999999702","","","0.35","0","false","practice","1","A","f","false","","",""
"","","","","","html-keyboard-response","24","102457","0.0-3.1-1.1-2.6","6645e7e1762bc0cf47e364f6","641359b5040c453203e2c088","66460ce736c0bd14aafa10b3","A","S","1","2","f","","null","<div style=""width:300px;height:56px;border:0px;font-size:30px;text-align:center"">Wrong. You missed the letter.</div>","null","","","","","","","","","","","","","",""
"","","","","","html-keyboard-response","25","103121","0.0-3.1-1.1-0.7","6645e7e1762bc0cf47e364f6","641359b5040c453203e2c088","66460ce736c0bd14aafa10b3","A","S","1","2","f","","null","<div style=""font-size:60px;"">+</div>","null","","","","","","","","","","","","","",""
"","","","","","noisyLetter","26","104435","0.0-3.1-1.1-1.7","6645e7e1762bc0cf47e364f6","641359b5040c453203e2c088","66460ce736c0bd14aafa10b3","A","S","1","2","f","","","","g","922.7999999970198","","","0.35","0","false","practice","0","A","g","true","","",""
"","","","","","html-keyboard-response","27","105937","0.0-3.1-1.1-2.7","6645e7e1762bc0cf47e364f6","641359b5040c453203e2c088","66460ce736c0bd14aafa10b3","A","S","1","2","f","","null","<div style=""width:300px;height:56px;border:0px;font-size:30px;text-align:center"">Correct! This was just noise.</div>","null","","","","","","","","","","","","","",""
"","","","","","instructions","28","111826","0.0-4.0","6645e7e1762bc0cf47e364f6","641359b5040c453203e2c088","66460ce736c0bd14aafa10b3","A","S","1","2","f","[{""page_index"":0,""viewing_time"":4518},{""page_index"":1,""viewing_time"":1367}]","5886","","","","","","","","","","","","","","","",""
"","","","","","html-keyboard-response","29","112622","0.0-5.0-1.0-0.0-0.0","6645e7e1762bc0cf47e364f6","641359b5040c453203e2c088","66460ce736c0bd14aafa10b3","A","S","1","2","f","","null","<div style=""font-size:60px;"">+</div>","null","","","","","","","","","","","","","",""
"","","","","","noisyLetter","30","119416","0.0-5.0-1.0-0.0-1.0","6645e7e1762bc0cf47e364f6","641359b5040c453203e2c088","66460ce736c0bd14aafa10b3","A","S","1","2","f","","","","g","4277.60000000149","","","0.35","0","false","practice","0","A","g","true","0.9714912280701754","2286.7999999970198",""
"","","","","","html-keyboard-response","31","120224","0.0-5.0-1.0-0.0-0.1","6645e7e1762bc0cf47e364f6","641359b5040c453203e2c088","66460ce736c0bd14aafa10b3","A","S","1","2","f","","null","<div style=""font-size:60px;"">+</div>","null","","","","","","","","","","","","","",""
"","","","","","noisyLetter","32","122330","0.0-5.0-1.0-0.0-1.1","6645e7e1762bc0cf47e364f6","641359b5040c453203e2c088","66460ce736c0bd14aafa10b3","A","S","1","2","f","","","","f","931.5","","","0.35","0","false","practice","1","A","f","true","0.5635964912280702","983.2000000029802",""
"","","","","","html-keyboard-response","33","123168","0.0-5.0-1.0-0.0-0.2","6645e7e1762bc0cf47e364f6","641359b5040c453203e2c088","66460ce736c0bd14aafa10b3","A","S","1","2","f","","null","<div style=""font-size:60px;"">+</div>","null","","","","","","","","","","","","","",""
"","","","","","noisyLetter","34","125280","0.0-5.0-1.0-0.0-1.2","6645e7e1762bc0cf47e364f6","641359b5040c453203e2c088","66460ce736c0bd14aafa10b3","A","S","1","2","f","","","","g","316.6000000014901","","","0.35","0","false","practice","0","A","g","true","0.8399122807017544","1580.8999999985099",""
"","","","","","html-keyboard-response","35","126023","0.0-5.0-1.0-0.0-0.3","6645e7e1762bc0cf47e364f6","641359b5040c453203e2c088","66460ce736c0bd14aafa10b3","A","S","1","2","f","","null","<div style=""font-size:60px;"">+</div>","null","","","","","","","","","","","","","",""
"","","","","","noisyLetter","36","128296","0.0-5.0-1.0-0.0-1.3","6645e7e1762bc0cf47e364f6","641359b5040c453203e2c088","66460ce736c0bd14aafa10b3","A","S","1","2","f","","","","f","413.20000000298023","","","0.35","0","false","practice","1","A","f","true","0.8267543859649122","1726.7999999970198",""
"","","","","","survey-multi-choice","37","135890","0.0-5.0-1.0-1.0","6645e7e1762bc0cf47e364f6","641359b5040c453203e2c088","66460ce736c0bd14aafa10b3","A","S","1","2","f","","7586","","{""multichoice_confidence"":""1. very confident that there was a letter in the noise.""}","","","","","","","","","","","","","","[0]"
"","","","","","instructions","38","144646","0.0-5.1-0.1-0.1","6645e7e1762bc0cf47e364f6","641359b5040c453203e2c088","66460ce736c0bd14aafa10b3","A","S","1","2","f","[{""page_index"":0,""viewing_time"":8751}]","8751","","","","","","","","","","","","","","","",""
"","","","","","html-keyboard-response","39","145569","0.0-5.1-1.1-0.1-0.4","6645e7e1762bc0cf47e364f6","641359b5040c453203e2c088","66460ce736c0bd14aafa10b3","A","S","1","2","f","","null","<div style=""font-size:60px;"">+</div>","null","","","","","","","","","","","","","",""
"","","","","","noisyLetter","40","147989","0.0-5.1-1.1-0.1-1.4","6645e7e1762bc0cf47e364f6","641359b5040c453203e2c088","66460ce736c0bd14aafa10b3","A","S","1","2","f","","","","g","1209.3999999985099","","","0.35","0","false","practice","0","A","g","true","0.7872807017543859","1132.2999999970198",""
"","","","","","html-keyboard-response","41","148759","0.0-5.1-1.1-0.1-0.5","6645e7e1762bc0cf47e364f6","641359b5040c453203e2c088","66460ce736c0bd14aafa10b3","A","S","1","2","f","","null","<div style=""font-size:60px;"">+</div>","null","","","","","","","","","","","","","",""
"","","","","","noisyLetter","42","150489","0.0-5.1-1.1-0.1-1.5","6645e7e1762bc0cf47e364f6","641359b5040c453203e2c088","66460ce736c0bd14aafa10b3","A","S","1","2","f","","","","f","22.100000001490116","","","0.35","0","false","practice","1","A","f","true","1","1461",""
"","","","","","html-keyboard-response","43","151197","0.0-5.1-1.1-0.1-0.6","6645e7e1762bc0cf47e364f6","641359b5040c453203e2c088","66460ce736c0bd14aafa10b3","A","S","1","2","f","","null","<div style=""font-size:60px;"">+</div>","null","","","","","","","","","","","","","",""
"","","","","","noisyLetter","44","152605","0.0-5.1-1.1-0.1-1.6","6645e7e1762bc0cf47e364f6","641359b5040c453203e2c088","66460ce736c0bd14aafa10b3","A","S","1","2","f","","","","g","81.60000000149012","","","0.35","0","false","practice","0","A","g","true","1","1204.7999999970198",""
"","","","","","html-keyboard-response","45","153394","0.0-5.1-1.1-0.1-0.7","6645e7e1762bc0cf47e364f6","641359b5040c453203e2c088","66460ce736c0bd14aafa10b3","A","S","1","2","f","","null","<div style=""font-size:60px;"">+</div>","null","","","","","","","","","","","","","",""
"","","","","","noisyLetter","46","154638","0.0-5.1-1.1-0.1-1.7","6645e7e1762bc0cf47e364f6","641359b5040c453203e2c088","66460ce736c0bd14aafa10b3","A","S","1","2","f","","","","f","165.10000000149012","","","0.35","0","false","practice","1","A","f","true","0.9824561403508771","974.2999999970198",""
"","","","","","survey-multi-choice","47","165312","0.0-5.1-1.1-1.1","6645e7e1762bc0cf47e364f6","641359b5040c453203e2c088","66460ce736c0bd14aafa10b3","A","S","1","2","f","","10671","","{""multichoice_confidence"":""2. very confident that there was no letter in the noise.""}","","","","","","","","","","","","","","[0]"
"","","","","","instructions","48","171199","0.0-6.0","6645e7e1762bc0cf47e364f6","641359b5040c453203e2c088","66460ce736c0bd14aafa10b3","A","S","1","2","f","[{""page_index"":0,""viewing_time"":5673},{""page_index"":1,""viewing_time"":210}]","5882","","","","","","","","","","","","","","","",""
"","","","","","html-keyboard-response","49","171896","0.0-7.0-0.0","6645e7e1762bc0cf47e364f6","641359b5040c453203e2c088","66460ce736c0bd14aafa10b3","A","S","1","2","f","","null","<div style=""font-size:60px;"">+</div>","null","","","","","","","","","","","","","",""
"","","","","","noisyLetter","50","174081","0.0-7.0-1.0","6645e7e1762bc0cf47e364f6","641359b5040c453203e2c088","66460ce736c0bd14aafa10b3","A","S","1","2","f","","","","g","753.8999999985099","","","0.3","0.1","false","test1","1","A","f","false","0.5153508771929824","1222.6000000014901",""
"","","","","","html-keyboard-response","51","176583","0.0-7.0-2.0","6645e7e1762bc0cf47e364f6","641359b5040c453203e2c088","66460ce736c0bd14aafa10b3","A","S","1","2","f","","656","<div style=""width:150px;height:56px;border:0px;font-size:30px;text-align:center"">wrong.</div>","f","","","","","","","","","","","","","",""
"","","","","","html-keyboard-response","52","177373","0.0-7.0-0.1","6645e7e1762bc0cf47e364f6","641359b5040c453203e2c088","66460ce736c0bd14aafa10b3","A","S","1","2","f","","null","<div style=""font-size:60px;"">+</div>","null","","","","","","","","","","","","","",""
"","","","","","noisyLetter","53","179296","0.0-7.0-1.1","6645e7e1762bc0cf47e364f6","641359b5040c453203e2c088","66460ce736c0bd14aafa10b3","A","S","1","2","f","","","","f","339.19999999552965","","","0.3","0.1","false","test1","0","A","g","false","0.8070175438596492","1505.3999999985099",""
"","","","","","html-keyboard-response","54","181797","0.0-7.0-2.1","6645e7e1762bc0cf47e364f6","641359b5040c453203e2c088","66460ce736c0bd14aafa10b3","A","S","1","2","f","","1071","<div style=""width:150px;height:56px;border:0px;font-size:30px;text-align:center"">wrong.</div>","f","","","","","","","","","","","","","",""
"","","","","","html-keyboard-response","55","182761","0.0-7.0-0.2","6645e7e1762bc0cf47e364f6","641359b5040c453203e2c088","66460ce736c0bd14aafa10b3","A","S","1","2","f","","null","<div style=""font-size:60px;"">+</div>","null","","","","","","","","","","","","","",""
"","","","","","noisyLetter","56","184344","0.0-7.0-1.2","6645e7e1762bc0cf47e364f6","641359b5040c453203e2c088","66460ce736c0bd14aafa10b3","A","S","1","2","f","","","","f","103.70000000298023","","","0.3","0.35","false","test1","0","A","g","false","0.8991228070175439","1405.7999999970198",""
"","","","","","html-keyboard-response","57","186846","0.0-7.0-2.2","6645e7e1762bc0cf47e364f6","641359b5040c453203e2c088","66460ce736c0bd14aafa10b3","A","S","1","2","f","","1233","<div style=""width:150px;height:56px;border:0px;font-size:30px;text-align:center"">wrong.</div>","f","","","","","","","","","","","","","",""
"","","","","","html-keyboard-response","58","187583","0.0-7.0-0.3","6645e7e1762bc0cf47e364f6","641359b5040c453203e2c088","66460ce736c0bd14aafa10b3","A","S","1","2","f","","null","<div style=""font-size:60px;"">+</div>","null","","","","","","","","","","","","","",""
"","","","","","noisyLetter","59","189443","0.0-7.0-1.3","6645e7e1762bc0cf47e364f6","641359b5040c453203e2c088","66460ce736c0bd14aafa10b3","A","S","1","2","f","","","","f","84.60000000149012","","","0.3","0.35","false","test1","1","A","f","true","1","1707.7999999970198",""
"","","","","","html-keyboard-response","60","190445","0.0-7.0-2.3","6645e7e1762bc0cf47e364f6","641359b5040c453203e2c088","66460ce736c0bd14aafa10b3","A","S","1","2","f","","null","<div style=""width:150px;height:56px;font-size:30px;text-align:center;"">correct!</div>","null","","","","","","","","","","","","","",""
"","","","","","html-keyboard-response","61","191064","0.0-7.0-0.4","6645e7e1762bc0cf47e364f6","641359b5040c453203e2c088","66460ce736c0bd14aafa10b3","A","S","1","2","f","","null","<div style=""font-size:60px;"">+</div>","null","","","","","","","","","","","","","",""
"","","","","","noisyLetter","62","194225","0.0-7.0-1.4","6645e7e1762bc0cf47e364f6","641359b5040c453203e2c088","66460ce736c0bd14aafa10b3","A","S","1","2","f","","","","g","1972.0999999940395","","","0.3","0.35","false","test1","1","A","f","false","1","1160.5",""
"","","","","","html-keyboard-response","63","196727","0.0-7.0-2.4","6645e7e1762bc0cf47e364f6","641359b5040c453203e2c088","66460ce736c0bd14aafa10b3","A","S","1","2","f","","892","<div style=""width:150px;height:56px;border:0px;font-size:30px;text-align:center"">wrong.</div>","g","","","","","","","","","","","","","",""
"","","","","","html-keyboard-response","64","197570","0.0-7.0-0.5","6645e7e1762bc0cf47e364f6","641359b5040c453203e2c088","66460ce736c0bd14aafa10b3","A","S","1","2","f","","null","<div style=""font-size:60px;"">+</div>","null","","","","","","","","","","","","","",""
"","","","","","noisyLetter","65","199157","0.0-7.0-1.5","6645e7e1762bc0cf47e364f6","641359b5040c453203e2c088","66460ce736c0bd14aafa10b3","A","S","1","2","f","","","","g","67.20000000298023","","","0.3","0.1","false","test1","1","A","f","false","1","1280.5",""
"","","","","","html-keyboard-response","66","201658","0.0-7.0-2.5","6645e7e1762bc0cf47e364f6","641359b5040c453203e2c088","66460ce736c0bd14aafa10b3","A","S","1","2","f","","1311","<div style=""width:150px;height:56px;border:0px;font-size:30px;text-align:center"">wrong.</div>","f","","","","","","","","","","","","","",""
"","","","","","html-keyboard-response","67","202538","0.0-7.0-0.6","6645e7e1762bc0cf47e364f6","641359b5040c453203e2c088","66460ce736c0bd14aafa10b3","A","S","1","2","f","","null","<div style=""font-size:60px;"">+</div>","null","","","","","","","","","","","","","",""
"","","","","","noisyLetter","68","203922","0.0-7.0-1.6","6645e7e1762bc0cf47e364f6","641359b5040c453203e2c088","66460ce736c0bd14aafa10b3","A","S","1","2","f","","","","f","31.900000005960464","","","0.3","0.35","false","test1","0","A","g","false","1","1261.5",""
"","","","","","html-keyboard-response","69","206423","0.0-7.0-2.6","6645e7e1762bc0cf47e364f6","641359b5040c453203e2c088","66460ce736c0bd14aafa10b3","A","S","1","2","f","","1196","<div style=""width:150px;height:56px;border:0px;font-size:30px;text-align:center"">wrong.</div>","g","","","","","","","","","","","","","",""
"","","","","","html-keyboard-response","70","207250","0.0-7.0-0.7","6645e7e1762bc0cf47e364f6","641359b5040c453203e2c088","66460ce736c0bd14aafa10b3","A","S","1","2","f","","null","<div style=""font-size:60px;"">+</div>","null","","","","","","","","","","","","","",""
"","","","","","noisyLetter","71","209686","0.0-7.0-1.7","6645e7e1762bc0cf47e364f6","641359b5040c453203e2c088","66460ce736c0bd14aafa10b3","A","S","1","2","f","","","","g","855.5","","","0.3","0.1","false","test1","0","A","g","true","0.8333333333333334","1535.2999999970198",""
"","","","","","html-keyboard-response","72","210687","0.0-7.0-2.7","6645e7e1762bc0cf47e364f6","641359b5040c453203e2c088","66460ce736c0bd14aafa10b3","A","S","1","2","f","","992","<div style=""width:150px;height:56px;font-size:30px;text-align:center;"">correct!</div>","f","","","","","","","","","","","","","",""
"","","","","","html-keyboard-response","73","211608","0.0-7.0-0.8","6645e7e1762bc0cf47e364f6","641359b5040c453203e2c088","66460ce736c0bd14aafa10b3","A","S","1","2","f","","null","<div style=""font-size:60px;"">+</div>","null","","","","","","","","","","","","","",""
"","","","","","noisyLetter","74","213351","0.0-7.0-1.8","6645e7e1762bc0cf47e364f6","641359b5040c453203e2c088","66460ce736c0bd14aafa10b3","A","S","1","2","f","","","","f","25.19999999552965","","","0.3","0.35","false","test1","1","A","f","true","0.8223684210526316","1611.3000000044703",""
"","","","","","html-keyboard-response","75","214354","0.0-7.0-2.8","6645e7e1762bc0cf47e364f6","641359b5040c453203e2c088","66460ce736c0bd14aafa10b3","A","S","1","2","f","","null","<div style=""width:150px;height:56px;font-size:30px;text-align:center;"">correct!</div>","null","","","","","","","","","","","","","",""
"","","","","","html-keyboard-response","76","215320","0.0-7.0-0.9","6645e7e1762bc0cf47e364f6","641359b5040c453203e2c088","66460ce736c0bd14aafa10b3","A","S","1","2","f","","null","<div style=""font-size:60px;"">+</div>","null","","","","","","","","","","","","","",""
"","","","","","noisyLetter","77","216868","0.0-7.0-1.9","6645e7e1762bc0cf47e364f6","641359b5040c453203e2c088","66460ce736c0bd14aafa10b3","A","S","1","2","f","","","","g","30.399999998509884","","","0.3","0.1","false","test1","1","A","f","false","0.8771929824561404","1450.3999999985099",""
"","","","","","html-keyboard-response","78","219370","0.0-7.0-2.9","6645e7e1762bc0cf47e364f6","641359b5040c453203e2c088","66460ce736c0bd14aafa10b3","A","S","1","2","f","","780","<div style=""width:150px;height:56px;border:0px;font-size:30px;text-align:center"">wrong.</div>","g","","","","","","","","","","","","","",""
"","","","","","html-keyboard-response","79","219954","0.0-7.0-0.10","6645e7e1762bc0cf47e364f6","641359b5040c453203e2c088","66460ce736c0bd14aafa10b3","A","S","1","2","f","","null","<div style=""font-size:60px;"">+</div>","null","","","","","","","","","","","","","",""
"","","","","","noisyLetter","80","221483","0.0-7.0-1.10","6645e7e1762bc0cf47e364f6","641359b5040c453203e2c088","66460ce736c0bd14aafa10b3","A","S","1","2","f","","","","f","2.3000000044703484","","","0.3","0.1","false","test1","0","A","g","false","0.8859649122807017","1416.5",""
"","","","","","html-keyboard-response","81","223985","0.0-7.0-2.10","6645e7e1762bc0cf47e364f6","641359b5040c453203e2c088","66460ce736c0bd14aafa10b3","A","S","1","2","f","","null","<div style=""width:150px;height:56px;border:0px;font-size:30px;text-align:center"">wrong.</div>","null","","","","","","","","","","","","","",""
"","","","","","html-keyboard-response","82","224560","0.0-7.0-0.11","6645e7e1762bc0cf47e364f6","641359b5040c453203e2c088","66460ce736c0bd14aafa10b3","A","S","1","2","f","","null","<div style=""font-size:60px;"">+</div>","null","","","","","","","","","","","","","",""
"","","","","","noisyLetter","83","226081","0.0-7.0-1.11","6645e7e1762bc0cf47e364f6","641359b5040c453203e2c088","66460ce736c0bd14aafa10b3","A","S","1","2","f","","","","f","3.0999999940395355","","","0.3","0.35","false","test1","0","A","g","false","0.9429824561403509","1437.9000000059605",""
"","","","","","html-keyboard-response","84","228584","0.0-7.0-2.11","6645e7e1762bc0cf47e364f6","641359b5040c453203e2c088","66460ce736c0bd14aafa10b3","A","S","1","2","f","","1127","<div style=""width:150px;height:56px;border:0px;font-size:30px;text-align:center"">wrong.</div>","g","","","","","","","","","","","","","",""
"","","","","","html-keyboard-response","85","229564","0.0-7.0-0.12","6645e7e1762bc0cf47e364f6","641359b5040c453203e2c088","66460ce736c0bd14aafa10b3","A","S","1","2","f","","null","<div style=""font-size:60px;"">+</div>","null","","","","","","","","","","","","","",""
"","","","","","noisyLetter","86","231162","0.0-7.0-1.12","6645e7e1762bc0cf47e364f6","641359b5040c453203e2c088","66460ce736c0bd14aafa10b3","A","S","1","2","f","","","","g","2.2000000029802322","","","0.3","0.1","false","test1","0","A","g","true","0.9166666666666666","1481",""
"","","","","","html-keyboard-response","87","232165","0.0-7.0-2.12","6645e7e1762bc0cf47e364f6","641359b5040c453203e2c088","66460ce736c0bd14aafa10b3","A","S","1","2","f","","786","<div style=""width:150px;height:56px;font-size:30px;text-align:center;"">correct!</div>","f","","","","","","","","","","","","","",""
"","","","","","html-keyboard-response","88","233058","0.0-7.0-0.13","6645e7e1762bc0cf47e364f6","641359b5040c453203e2c088","66460ce736c0bd14aafa10b3","A","S","1","2","f","","null","<div style=""font-size:60px;"">+</div>","null","","","","","","","","","","","","","",""
"","","","","","noisyLetter","89","234812","0.0-7.0-1.13","6645e7e1762bc0cf47e364f6","641359b5040c453203e2c088","66460ce736c0bd14aafa10b3","A","S","1","2","f","","","","f","79.10000000149012","","","0.3","0.35","false","test1","0","A","g","false","0.8618421052631579","1644.5",""
"","","","","","html-keyboard-response","90","237314","0.0-7.0-2.13","6645e7e1762bc0cf47e364f6","641359b5040c453203e2c088","66460ce736c0bd14aafa10b3","A","S","1","2","f","","1086","<div style=""width:150px;height:56px;border:0px;font-size:30px;text-align:center"">wrong.</div>","f","","","","","","","","","","","","","",""
"","","","","","html-keyboard-response","91","237962","0.0-7.0-0.14","6645e7e1762bc0cf47e364f6","641359b5040c453203e2c088","66460ce736c0bd14aafa10b3","A","S","1","2","f","","null","<div style=""font-size:60px;"">+</div>","null","","","","","","","","","","","","","",""
"","","","","","noisyLetter","92","240092","0.0-7.0-1.14","6645e7e1762bc0cf47e364f6","641359b5040c453203e2c088","66460ce736c0bd14aafa10b3","A","S","1","2","f","","","","f","134.19999999552965","","","0.3","0.1","false","test1","1","A","f","true","0.9692982456140351","1881.3000000044703",""
"","","","","","html-keyboard-response","93","241094","0.0-7.0-2.14","6645e7e1762bc0cf47e364f6","641359b5040c453203e2c088","66460ce736c0bd14aafa10b3","A","S","1","2","f","","857","<div style=""width:150px;height:56px;font-size:30px;text-align:center;"">correct!</div>","f","","","","","","","","","","","","","",""
"","","","","","html-keyboard-response","94","241669","0.0-7.0-0.15","6645e7e1762bc0cf47e364f6","641359b5040c453203e2c088","66460ce736c0bd14aafa10b3","A","S","1","2","f","","null","<div style=""font-size:60px;"">+</div>","null","","","","","","","","","","","","","",""
"","","","","","noisyLetter","95","243426","0.0-7.0-1.15","6645e7e1762bc0cf47e364f6","641359b5040c453203e2c088","66460ce736c0bd14aafa10b3","A","S","1","2","f","","","","f","62.29999999701977","","","0.3","0.35","false","test1","1","A","f","true","0.9232456140350878","1641",""
"","","","","","html-keyboard-response","96","244427","0.0-7.0-2.15","6645e7e1762bc0cf47e364f6","641359b5040c453203e2c088","66460ce736c0bd14aafa10b3","A","S","1","2","f","","933","<div style=""width:150px;height:56px;font-size:30px;text-align:center;"">correct!</div>","f","","","","","","","","","","","","","",""
"","","","","","instructions","97","247720","0.0-8.0","6645e7e1762bc0cf47e364f6","641359b5040c453203e2c088","66460ce736c0bd14aafa10b3","A","S","1","2","f","[{""page_index"":0,""viewing_time"":3290}]","3291","","","","","","","","","","","","","","","",""
"","","","","","html-keyboard-response","98","248518","0.0-9.0-0.0","6645e7e1762bc0cf47e364f6","641359b5040c453203e2c088","66460ce736c0bd14aafa10b3","A","S","1","2","f","","null","<div style=""font-size:60px;"">+</div>","null","","","","","","","","","","","","","",""
"","","","","","noisyLetter","99","250140","0.0-9.0-1.0","6645e7e1762bc0cf47e364f6","641359b5040c453203e2c088","66460ce736c0bd14aafa10b3","A","S","1","2","f","","","","f","354","","","0.3","0.1","false","test1","0","A","g","false","1","1237.3999999985099",""
"","","","","","html-keyboard-response","100","252642","0.0-9.0-2.0","6645e7e1762bc0cf47e364f6","641359b5040c453203e2c088","66460ce736c0bd14aafa10b3","A","S","1","2","f","","1048","<div style=""width:150px;height:56px;border:0px;font-size:30px;text-align:center"">wrong.</div>","f","","","","","","","","","","","","","",""
"","","","","","html-keyboard-response","101","253242","0.0-9.0-0.1","6645e7e1762bc0cf47e364f6","641359b5040c453203e2c088","66460ce736c0bd14aafa10b3","A","S","1","2","f","","null","<div style=""font-size:60px;"">+</div>","null","","","","","","","","","","","","","",""
"","","","","","noisyLetter","102","254689","0.0-9.0-1.1","6645e7e1762bc0cf47e364f6","641359b5040c453203e2c088","66460ce736c0bd14aafa10b3","A","S","1","2","f","","","","f","90.10000000149012","","","0.3","0.35","false","test1","0","A","g","false","1","1272.5",""
"","","","","","html-keyboard-response","103","257190","0.0-9.0-2.1","6645e7e1762bc0cf47e364f6","641359b5040c453203e2c088","66460ce736c0bd14aafa10b3","A","S","1","2","f","","null","<div style=""width:150px;height:56px;border:0px;font-size:30px;text-align:center"">wrong.</div>","null","","","","","","","","","","","","","",""
"","","","","","html-keyboard-response","104","257965","0.0-9.0-0.2","6645e7e1762bc0cf47e364f6","641359b5040c453203e2c088","66460ce736c0bd14aafa10b3","A","S","1","2","f","","null","<div style=""font-size:60px;"">+</div>","null","","","","","","","","","","","","","",""
"","","","","","noisyLetter","105","259687","0.0-9.0-1.2","6645e7e1762bc0cf47e364f6","641359b5040c453203e2c088","66460ce736c0bd14aafa10b3","A","S","1","2","f","","","","g","292.29999999701977","","","0.3","0.1","false","test1","1","A","f","false","0.7653508771929824","1357.5",""
"","","","","","html-keyboard-response","106","262190","0.0-9.0-2.2","6645e7e1762bc0cf47e364f6","641359b5040c453203e2c088","66460ce736c0bd14aafa10b3","A","S","1","2","f","","951","<div style=""width:150px;height:56px;border:0px;font-size:30px;text-align:center"">wrong.</div>","g","","","","","","","","","","","","","",""
"","","","","","html-keyboard-response","107","262898","0.0-9.0-0.3","6645e7e1762bc0cf47e364f6","641359b5040c453203e2c088","66460ce736c0bd14aafa10b3","A","S","1","2","f","","null","<div style=""font-size:60px;"">+</div>","null","","","","","","","","","","","","","",""
"","","","","","noisyLetter","108","264685","0.0-9.0-1.3","6645e7e1762bc0cf47e364f6","641359b5040c453203e2c088","66460ce736c0bd14aafa10b3","A","S","1","2","f","","","","g","62.5","","","0.3","0.35","false","test1","1","A","f","false","0.6973684210526316","1625.1000000014901",""
"","","","","","html-keyboard-response","109","267188","0.0-9.0-2.3","6645e7e1762bc0cf47e364f6","641359b5040c453203e2c088","66460ce736c0bd14aafa10b3","A","S","1","2","f","","742","<div style=""width:150px;height:56px;border:0px;font-size:30px;text-align:center"">wrong.</div>","g","","","","","","","","","","","","","",""
"","","","","","html-keyboard-response","110","268160","0.0-9.0-0.4","6645e7e1762bc0cf47e364f6","641359b5040c453203e2c088","66460ce736c0bd14aafa10b3","A","S","1","2","f","","null","<div style=""font-size:60px;"">+</div>","null","","","","","","","","","","","","","",""
"","","","","","noisyLetter","111","269951","0.0-9.0-1.4","6645e7e1762bc0cf47e364f6","641359b5040c453203e2c088","66460ce736c0bd14aafa10b3","A","S","1","2","f","","","","g","120.29999999701977","","","0.3","0.1","false","test1","1","A","f","false","0.6864035087719298","1607.8000000044703",""
"","","","","","html-keyboard-response","112","272453","0.0-9.0-2.4","6645e7e1762bc0cf47e364f6","641359b5040c453203e2c088","66460ce736c0bd14aafa10b3","A","S","1","2","f","","1005","<div style=""width:150px;height:56px;border:0px;font-size:30px;text-align:center"">wrong.</div>","g","","","","","","","","","","","","","",""
"","","","","","html-keyboard-response","113","273342","0.0-9.0-0.5","6645e7e1762bc0cf47e364f6","641359b5040c453203e2c088","66460ce736c0bd14aafa10b3","A","S","1","2","f","","null","<div style=""font-size:60px;"">+</div>","null","","","","","","","","","","","","","",""
"","","","","","noisyLetter","114","274999","0.0-9.0-1.5","6645e7e1762bc0cf47e364f6","641359b5040c453203e2c088","66460ce736c0bd14aafa10b3","A","S","1","2","f","","","","g","73.29999999701977","","","0.3","0.35","false","test1","1","A","f","false","0.8903508771929824","1524.2000000029802",""
"","","","","","html-keyboard-response","115","277501","0.0-9.0-2.5","6645e7e1762bc0cf47e364f6","641359b5040c453203e2c088","66460ce736c0bd14aafa10b3","A","S","1","2","f","","1110","<div style=""width:150px;height:56px;border:0px;font-size:30px;text-align:center"">wrong.</div>","f","","","","","","","","","","","","","",""
"","","","","","html-keyboard-response","116","278071","0.0-9.0-0.6","6645e7e1762bc0cf47e364f6","641359b5040c453203e2c088","66460ce736c0bd14aafa10b3","A","S","1","2","f","","null","<div style=""font-size:60px;"">+</div>","null","","","","","","","","","","","","","",""
"","","","","","noisyLetter","117","279731","0.0-9.0-1.6","6645e7e1762bc0cf47e364f6","641359b5040c453203e2c088","66460ce736c0bd14aafa10b3","A","S","1","2","f","","","","f","3.399999998509884","","","0.3","0.1","false","test1","0","A","g","false","1","1563.7000000029802",""
"","","","","","html-keyboard-response","118","282233","0.0-9.0-2.6","6645e7e1762bc0cf47e364f6","641359b5040c453203e2c088","66460ce736c0bd14aafa10b3","A","S","1","2","f","","1131","<div style=""width:150px;height:56px;border:0px;font-size:30px;text-align:center"">wrong.</div>","f","","","","","","","","","","","","","",""
"","","","","","html-keyboard-response","119","283214","0.0-9.0-0.7","6645e7e1762bc0cf47e364f6","641359b5040c453203e2c088","66460ce736c0bd14aafa10b3","A","S","1","2","f","","null","<div style=""font-size:60px;"">+</div>","null","","","","","","","","","","","","","",""
"","","","","","noisyLetter","120","285396","0.0-9.0-1.7","6645e7e1762bc0cf47e364f6","641359b5040c453203e2c088","66460ce736c0bd14aafa10b3","A","S","1","2","f","","","","f","521.8000000044703","","","0.3","0.35","false","test1","0","A","g","false","1","1612.7999999970198",""
"","","","","","html-keyboard-response","121","287897","0.0-9.0-2.7","6645e7e1762bc0cf47e364f6","641359b5040c453203e2c088","66460ce736c0bd14aafa10b3","A","S","1","2","f","","null","<div style=""width:150px;height:56px;border:0px;font-size:30px;text-align:center"">wrong.</div>","null","","","","","","","","","","","","","",""
"","","","","","html-keyboard-response","122","288516","0.0-9.0-0.8","6645e7e1762bc0cf47e364f6","641359b5040c453203e2c088","66460ce736c0bd14aafa10b3","A","S","1","2","f","","null","<div style=""font-size:60px;"">+</div>","null","","","","","","","","","","","","","",""
"","","","","","noisyLetter","123","292445","0.0-9.0-1.8","6645e7e1762bc0cf47e364f6","641359b5040c453203e2c088","66460ce736c0bd14aafa10b3","A","S","1","2","f","","","","g","2418.8000000044703","","","0.3","0.1","false","test1","0","A","g","true","1","1455.1999999955297",""
"","","","","","html-keyboard-response","124","293447","0.0-9.0-2.8","6645e7e1762bc0cf47e364f6","641359b5040c453203e2c088","66460ce736c0bd14aafa10b3","A","S","1","2","f","","null","<div style=""width:150px;height:56px;font-size:30px;text-align:center;"">correct!</div>","null","","","","","","","","","","","","","",""
"","","","","","html-keyboard-response","125","294111","0.0-9.0-0.9","6645e7e1762bc0cf47e364f6","641359b5040c453203e2c088","66460ce736c0bd14aafa10b3","A","S","1","2","f","","null","<div style=""font-size:60px;"">+</div>","null","","","","","","","","","","","","","",""
"","","","","","noisyLetter","126","296893","0.0-9.0-1.9","6645e7e1762bc0cf47e364f6","641359b5040c453203e2c088","66460ce736c0bd14aafa10b3","A","S","1","2","f","","","","f","1156.1999999955297","","","0.3","0.35","false","test1","0","A","g","false","0.6491228070175439","1380.8000000044703",""
"","","","","","html-keyboard-response","127","299395","0.0-9.0-2.9","6645e7e1762bc0cf47e364f6","641359b5040c453203e2c088","66460ce736c0bd14aafa10b3","A","S","1","2","f","","null","<div style=""width:150px;height:56px;border:0px;font-size:30px;text-align:center"">wrong.</div>","null","","","","","","","","","","","","","",""
"","","","","","html-keyboard-response","128","300213","0.0-9.0-0.10","6645e7e1762bc0cf47e364f6","641359b5040c453203e2c088","66460ce736c0bd14aafa10b3","A","S","1","2","f","","null","<div style=""font-size:60px;"">+</div>","null","","","","","","","","","","","","","",""
"","","","","","noisyLetter","129","303608","0.0-9.0-1.10","6645e7e1762bc0cf47e364f6","641359b5040c453203e2c088","66460ce736c0bd14aafa10b3","A","S","1","2","f","","","","f","1906","","","0.3","0.1","false","test1","1","A","f","true","0.9057017543859649","1428.2000000029802",""
"","","","","","html-keyboard-response","130","304610","0.0-9.0-2.10","6645e7e1762bc0cf47e364f6","641359b5040c453203e2c088","66460ce736c0bd14aafa10b3","A","S","1","2","f","","null","<div style=""width:150px;height:56px;font-size:30px;text-align:center;"">correct!</div>","null","","","","","","","","","","","","","",""
"","","","","","html-keyboard-response","131","305203","0.0-9.0-0.11","6645e7e1762bc0cf47e364f6","641359b5040c453203e2c088","66460ce736c0bd14aafa10b3","A","S","1","2","f","","null","<div style=""font-size:60px;"">+</div>","null","","","","","","","","","","","","","",""
"","","","","","noisyLetter","132","311806","0.0-9.0-1.11","6645e7e1762bc0cf47e364f6","641359b5040c453203e2c088","66460ce736c0bd14aafa10b3","A","S","1","2","f","","","","f","4278.29999999702","","","0.3","0.35","false","test1","1","A","f","true","0.8793859649122807","2134.2999999970198",""
"","","","","","html-keyboard-response","133","312808","0.0-9.0-2.11","6645e7e1762bc0cf47e364f6","641359b5040c453203e2c088","66460ce736c0bd14aafa10b3","A","S","1","2","f","","null","<div style=""width:150px;height:56px;font-size:30px;text-align:center;"">correct!</div>","null","","","","","","","","","","","","","",""
"","","","","","html-keyboard-response","134","313422","0.0-9.0-0.12","6645e7e1762bc0cf47e364f6","641359b5040c453203e2c088","66460ce736c0bd14aafa10b3","A","S","1","2","f","","null","<div style=""font-size:60px;"">+</div>","null","","","","","","","","","","","","","",""
"","","","","","noisyLetter","135","316171","0.0-9.0-1.12","6645e7e1762bc0cf47e364f6","641359b5040c453203e2c088","66460ce736c0bd14aafa10b3","A","S","1","2","f","","","","g","1177.8000000044703","","","0.3","0.1","false","test1","0","A","g","true","1","1428.1999999955297",""
"","","","","","html-keyboard-response","136","317172","0.0-9.0-2.12","6645e7e1762bc0cf47e364f6","641359b5040c453203e2c088","66460ce736c0bd14aafa10b3","A","S","1","2","f","","null","<div style=""width:150px;height:56px;font-size:30px;text-align:center;"">correct!</div>","null","","","","","","","","","","","","","",""
"","","","","","html-keyboard-response","137","317946","0.0-9.0-0.13","6645e7e1762bc0cf47e364f6","641359b5040c453203e2c088","66460ce736c0bd14aafa10b3","A","S","1","2","f","","null","<div style=""font-size:60px;"">+</div>","null","","","","","","","","","","","","","",""
"","","","","","noisyLetter","138","320318","0.0-9.0-1.13","6645e7e1762bc0cf47e364f6","641359b5040c453203e2c088","66460ce736c0bd14aafa10b3","A","S","1","2","f","","","","f","656.1000000014901","","","0.3","0.35","false","test1","1","A","f","true","0.7916666666666666","1618.6000000014901",""
"","","","","","html-keyboard-response","139","321319","0.0-9.0-2.13","6645e7e1762bc0cf47e364f6","641359b5040c453203e2c088","66460ce736c0bd14aafa10b3","A","S","1","2","f","","null","<div style=""width:150px;height:56px;font-size:30px;text-align:center;"">correct!</div>","null","","","","","","","","","","","","","",""
"","","","","","html-keyboard-response","140","321932","0.0-9.0-0.14","6645e7e1762bc0cf47e364f6","641359b5040c453203e2c088","66460ce736c0bd14aafa10b3","A","S","1","2","f","","null","<div style=""font-size:60px;"">+</div>","null","","","","","","","","","","","","","",""
"","","","","","noisyLetter","141","323717","0.0-9.0-1.14","6645e7e1762bc0cf47e364f6","641359b5040c453203e2c088","66460ce736c0bd14aafa10b3","A","S","1","2","f","","","","g","15.299999997019768","","","0.3","0.1","false","test1","1","A","f","false","1","1662.7999999970198",""
"","","","","","html-keyboard-response","142","326218","0.0-9.0-2.14","6645e7e1762bc0cf47e364f6","641359b5040c453203e2c088","66460ce736c0bd14aafa10b3","A","S","1","2","f","","1064","<div style=""width:150px;height:56px;border:0px;font-size:30px;text-align:center"">wrong.</div>","f","","","","","","","","","","","","","",""
"","","","","","html-keyboard-response","143","326950","0.0-9.0-0.15","6645e7e1762bc0cf47e364f6","641359b5040c453203e2c088","66460ce736c0bd14aafa10b3","A","S","1","2","f","","null","<div style=""font-size:60px;"">+</div>","null","","","","","","","","","","","","","",""
"","","","","","noisyLetter","144","328667","0.0-9.0-1.15","6645e7e1762bc0cf47e364f6","641359b5040c453203e2c088","66460ce736c0bd14aafa10b3","A","S","1","2","f","","","","f","5.899999998509884","","","0.3","0.35","false","test1","0","A","g","false","0.9583333333333334","1511.6000000014901",""
"","","","","","html-keyboard-response","145","331169","0.0-9.0-2.15","6645e7e1762bc0cf47e364f6","641359b5040c453203e2c088","66460ce736c0bd14aafa10b3","A","S","1","2","f","","null","<div style=""width:150px;height:56px;border:0px;font-size:30px;text-align:center"">wrong.</div>","null","","","","","","","","","","","","","",""
"","","","","","instructions","146","335243","0.0-10.0","6645e7e1762bc0cf47e364f6","641359b5040c453203e2c088","66460ce736c0bd14aafa10b3","A","S","1","2","f","[{""page_index"":0,""viewing_time"":3701},{""page_index"":1,""viewing_time"":181},{""page_index"":2,""viewing_time"":190}]","4072","","","","","","","","","","","","","","","",""
"","","","","","html-keyboard-response","147","335922","0.0-11.0-1.0-0.0","6645e7e1762bc0cf47e364f6","641359b5040c453203e2c088","66460ce736c0bd14aafa10b3","A","S","1","2","f","","null","<div style=""font-size:60px;"">+</div>","null","","","","","","","","","","","","","",""
"","","","","","noisyLetter","148","336897","0.0-11.0-1.0-1.0","6645e7e1762bc0cf47e364f6","641359b5040c453203e2c088","66460ce736c0bd14aafa10b3","A","S","1","2","f","","","","g","573.3999999985099","","","0.35","0","false","practice","0","S","g","true","","",""
"","","","","","html-keyboard-response","149","338399","0.0-11.0-1.0-2.0","6645e7e1762bc0cf47e364f6","641359b5040c453203e2c088","66460ce736c0bd14aafa10b3","A","S","1","2","f","","34","<div style=""width:300px;height:56px;border:0px;font-size:30px;text-align:center"">Correct! This was just noise.</div>","g","","","","","","","","","","","","","",""
"","","","","","html-keyboard-response","150","339146","0.0-11.0-1.0-0.1","6645e7e1762bc0cf47e364f6","641359b5040c453203e2c088","66460ce736c0bd14aafa10b3","A","S","1","2","f","","null","<div style=""font-size:60px;"">+</div>","null","","","","","","","","","","","","","",""
"","","","","","noisyLetter","151","339713","0.0-11.0-1.0-1.1","6645e7e1762bc0cf47e364f6","641359b5040c453203e2c088","66460ce736c0bd14aafa10b3","A","S","1","2","f","","","","f","288.69999999552965","","","0.35","0","false","practice","1","S","f","true","","",""
"","","","","","html-keyboard-response","152","341215","0.0-11.0-1.0-2.1","6645e7e1762bc0cf47e364f6","641359b5040c453203e2c088","66460ce736c0bd14aafa10b3","A","S","1","2","f","","157","<div style=""width:300px;height:56px;font-size:30px;text-align:center;"">Correct! You detected the letter.</div>","f","","","","","","","","","","","","","",""
"","","","","","html-keyboard-response","153","342161","0.0-11.0-1.0-0.2","6645e7e1762bc0cf47e364f6","641359b5040c453203e2c088","66460ce736c0bd14aafa10b3","A","S","1","2","f","","null","<div style=""font-size:60px;"">+</div>","null","","","","","","","","","","","","","",""
"","","","","","noisyLetter","154","342478","0.0-11.0-1.0-1.2","6645e7e1762bc0cf47e364f6","641359b5040c453203e2c088","66460ce736c0bd14aafa10b3","A","S","1","2","f","","","","f","2.100000001490116","","","0.35","0","false","practice","0","S","g","false","","",""
"","","","","","html-keyboard-response","155","345479","0.0-11.0-1.0-2.2","6645e7e1762bc0cf47e364f6","641359b5040c453203e2c088","66460ce736c0bd14aafa10b3","A","S","1","2","f","","134","<div style=""width:300px;height:56px;border:0px;font-size:30px;text-align:center"">Wrong. This was just noise.</div>","f","","","","","","","","","","","","","",""
"","","","","","html-keyboard-response","156","346465","0.0-11.0-1.0-0.3","6645e7e1762bc0cf47e364f6","641359b5040c453203e2c088","66460ce736c0bd14aafa10b3","A","S","1","2","f","","null","<div style=""font-size:60px;"">+</div>","null","","","","","","","","","","","","","",""
"","","","","","noisyLetter","157","346844","0.0-11.0-1.0-1.3","6645e7e1762bc0cf47e364f6","641359b5040c453203e2c088","66460ce736c0bd14aafa10b3","A","S","1","2","f","","","","f","120.39999999850988","","","0.35","0","false","practice","1","S","f","true","","",""
"","","","","","html-keyboard-response","158","348345","0.0-11.0-1.0-2.3","6645e7e1762bc0cf47e364f6","641359b5040c453203e2c088","66460ce736c0bd14aafa10b3","A","S","1","2","f","","59","<div style=""width:300px;height:56px;font-size:30px;text-align:center;"">Correct! You detected the letter.</div>","f","","","","","","","","","","","","","",""
"","","","","","instructions","159","352954","0.0-12.0","6645e7e1762bc0cf47e364f6","641359b5040c453203e2c088","66460ce736c0bd14aafa10b3","A","S","1","2","f","[{""page_index"":0,""viewing_time"":4603}]","4603","","","","","","","","","","","","","","","",""
"","","","","","html-keyboard-response","160","353563","0.0-13.0-0.0","6645e7e1762bc0cf47e364f6","641359b5040c453203e2c088","66460ce736c0bd14aafa10b3","A","S","1","2","f","","null","<div style=""font-size:60px;"">+</div>","null","","","","","","","","","","","","","",""
"","","","","","noisyLetter","161","356891","0.0-13.0-1.0","6645e7e1762bc0cf47e364f6","641359b5040c453203e2c088","66460ce736c0bd14aafa10b3","A","S","1","2","f","","","","g","2057.7000000029802","","","0.3","0.1","false","test2","0","S","g","true","0.611842105263158","1181.5",""
"","","","","","html-keyboard-response","162","357893","0.0-13.0-2.0","6645e7e1762bc0cf47e364f6","641359b5040c453203e2c088","66460ce736c0bd14aafa10b3","A","S","1","2","f","","null","<div style=""width:150px;height:56px;font-size:30px;text-align:center;"">correct!</div>","null","","","","","","","","","","","","","",""
"","","","","","html-keyboard-response","163","358663","0.0-13.0-0.1","6645e7e1762bc0cf47e364f6","641359b5040c453203e2c088","66460ce736c0bd14aafa10b3","A","S","1","2","f","","null","<div style=""font-size:60px;"">+</div>","null","","","","","","","","","","","","","",""
"","","","","","noisyLetter","164","361807","0.0-13.0-1.1","6645e7e1762bc0cf47e364f6","641359b5040c453203e2c088","66460ce736c0bd14aafa10b3","A","S","1","2","f","","","","f","2028.6000000014901","","","0.3","0.35","false","test2","0","S","g","false","1","947.5",""
"","","","","","html-keyboard-response","165","364309","0.0-13.0-2.1","6645e7e1762bc0cf47e364f6","641359b5040c453203e2c088","66460ce736c0bd14aafa10b3","A","S","1","2","f","","965","<div style=""width:150px;height:56px;border:0px;font-size:30px;text-align:center"">wrong.</div>","f","","","","","","","","","","","","","",""
"","","","","","html-keyboard-response","166","364978","0.0-13.0-0.2","6645e7e1762bc0cf47e364f6","641359b5040c453203e2c088","66460ce736c0bd14aafa10b3","A","S","1","2","f","","null","<div style=""font-size:60px;"">+</div>","null","","","","","","","","","","","","","",""
"","","","","","noisyLetter","167","366704","0.0-13.0-1.2","6645e7e1762bc0cf47e364f6","641359b5040c453203e2c088","66460ce736c0bd14aafa10b3","A","S","1","2","f","","","","f","8.300000004470348","","","0.3","0.35","false","test2","1","S","f","true","1","1514.1000000014901",""
"","","","","","html-keyboard-response","168","367705","0.0-13.0-2.2","6645e7e1762bc0cf47e364f6","641359b5040c453203e2c088","66460ce736c0bd14aafa10b3","A","S","1","2","f","","null","<div style=""width:150px;height:56px;font-size:30px;text-align:center;"">correct!</div>","null","","","","","","","","","","","","","",""
"","","","","","html-keyboard-response","169","368530","0.0-13.0-0.3","6645e7e1762bc0cf47e364f6","641359b5040c453203e2c088","66460ce736c0bd14aafa10b3","A","S","1","2","f","","null","<div style=""font-size:60px;"">+</div>","null","","","","","","","","","","","","","",""
"","","","","","noisyLetter","170","371119","0.0-13.0-1.3","6645e7e1762bc0cf47e364f6","641359b5040c453203e2c088","66460ce736c0bd14aafa10b3","A","S","1","2","f","","","","f","581.3999999985099","","","0.3","0.1","false","test2","1","S","f","true","0.7171052631578947","1930.7999999970198",""
"","","","","","html-keyboard-response","171","372121","0.0-13.0-2.3","6645e7e1762bc0cf47e364f6","641359b5040c453203e2c088","66460ce736c0bd14aafa10b3","A","S","1","2","f","","844","<div style=""width:150px;height:56px;font-size:30px;text-align:center;"">correct!</div>","f","","","","","","","","","","","","","",""
"","","","","","html-keyboard-response","172","373116","0.0-13.0-0.4","6645e7e1762bc0cf47e364f6","641359b5040c453203e2c088","66460ce736c0bd14aafa10b3","A","S","1","2","f","","null","<div style=""font-size:60px;"">+</div>","null","","","","","","","","","","","","","",""
"","","","","","noisyLetter","173","375302","0.0-13.0-1.4","6645e7e1762bc0cf47e364f6","641359b5040c453203e2c088","66460ce736c0bd14aafa10b3","A","S","1","2","f","","","","g","87.60000000149012","","","0.3","0.35","false","test2","0","S","g","true","0.9364035087719298","1990",""
"","","","","","html-keyboard-response","174","376304","0.0-13.0-2.4","6645e7e1762bc0cf47e364f6","641359b5040c453203e2c088","66460ce736c0bd14aafa10b3","A","S","1","2","f","","null","<div style=""width:150px;height:56px;font-size:30px;text-align:center;"">correct!</div>","null","","","","","","","","","","","","","",""
"","","","","","html-keyboard-response","175","377196","0.0-13.0-0.5","6645e7e1762bc0cf47e364f6","641359b5040c453203e2c088","66460ce736c0bd14aafa10b3","A","S","1","2","f","","null","<div style=""font-size:60px;"">+</div>","null","","","","","","","","","","","","","",""
"","","","","","noisyLetter","176","379401","0.0-13.0-1.5","6645e7e1762bc0cf47e364f6","641359b5040c453203e2c088","66460ce736c0bd14aafa10b3","A","S","1","2","f","","","","f","737","","","0.3","0.35","false","test2","1","S","f","true","0.6578947368421053","1242.1000000014901",""
"","","","","","html-keyboard-response","177","380403","0.0-13.0-2.5","6645e7e1762bc0cf47e364f6","641359b5040c453203e2c088","66460ce736c0bd14aafa10b3","A","S","1","2","f","","null","<div style=""width:150px;height:56px;font-size:30px;text-align:center;"">correct!</div>","null","","","","","","","","","","","","","",""
"","","","","","html-keyboard-response","178","381080","0.0-13.0-0.6","6645e7e1762bc0cf47e364f6","641359b5040c453203e2c088","66460ce736c0bd14aafa10b3","A","S","1","2","f","","null","<div style=""font-size:60px;"">+</div>","null","","","","","","","","","","","","","",""
"","","","","","noisyLetter","179","382633","0.0-13.0-1.6","6645e7e1762bc0cf47e364f6","641359b5040c453203e2c088","66460ce736c0bd14aafa10b3","A","S","1","2","f","","","","f","1.8999999985098839","","","0.3","0.1","false","test2","1","S","f","true","0.7807017543859649","1528.1000000014901",""
"","","","","","html-keyboard-response","180","383635","0.0-13.0-2.6","6645e7e1762bc0cf47e364f6","641359b5040c453203e2c088","66460ce736c0bd14aafa10b3","A","S","1","2","f","","null","<div style=""width:150px;height:56px;font-size:30px;text-align:center;"">correct!</div>","null","","","","","","","","","","","","","",""
"","","","","","html-keyboard-response","181","384329","0.0-13.0-0.7","6645e7e1762bc0cf47e364f6","641359b5040c453203e2c088","66460ce736c0bd14aafa10b3","A","S","1","2","f","","null","<div style=""font-size:60px;"">+</div>","null","","","","","","","","","","","","","",""
"","","","","","noisyLetter","182","385849","0.0-13.0-1.7","6645e7e1762bc0cf47e364f6","641359b5040c453203e2c088","66460ce736c0bd14aafa10b3","A","S","1","2","f","","","","g","62.29999999701977","","","0.3","0.1","false","test2","0","S","g","true","0.9473684210526316","1358.7000000029802",""
"","","","","","html-keyboard-response","183","386850","0.0-13.0-2.7","6645e7e1762bc0cf47e364f6","641359b5040c453203e2c088","66460ce736c0bd14aafa10b3","A","S","1","2","f","","null","<div style=""width:150px;height:56px;font-size:30px;text-align:center;"">correct!</div>","null","","","","","","","","","","","","","",""
"","","","","","html-keyboard-response","184","387643","0.0-13.0-0.8","6645e7e1762bc0cf47e364f6","641359b5040c453203e2c088","66460ce736c0bd14aafa10b3","A","S","1","2","f","","null","<div style=""font-size:60px;"">+</div>","null","","","","","","","","","","","","","",""
"","","","","","noisyLetter","185","390014","0.0-13.0-1.8","6645e7e1762bc0cf47e364f6","641359b5040c453203e2c088","66460ce736c0bd14aafa10b3","A","S","1","2","f","","","","f","655.6999999955297","","","0.3","0.1","false","test2","1","S","f","true","0.9407894736842105","1660.7000000029802",""
"","","","","","html-keyboard-response","186","391016","0.0-13.0-2.8","6645e7e1762bc0cf47e364f6","641359b5040c453203e2c088","66460ce736c0bd14aafa10b3","A","S","1","2","f","","null","<div style=""width:150px;height:56px;font-size:30px;text-align:center;"">correct!</div>","null","","","","","","","","","","","","","",""
"","","","","","html-keyboard-response","187","391612","0.0-13.0-0.9","6645e7e1762bc0cf47e364f6","641359b5040c453203e2c088","66460ce736c0bd14aafa10b3","A","S","1","2","f","","null","<div style=""font-size:60px;"">+</div>","null","","","","","","","","","","","","","",""
"","","","","","noisyLetter","188","393463","0.0-13.0-1.9","6645e7e1762bc0cf47e364f6","641359b5040c453203e2c088","66460ce736c0bd14aafa10b3","A","S","1","2","f","","","","g","54.80000000447035","","","0.3","0.35","false","test2","0","S","g","true","0.9495614035087719","1708",""
"","","","","","html-keyboard-response","189","394464","0.0-13.0-2.9","6645e7e1762bc0cf47e364f6","641359b5040c453203e2c088","66460ce736c0bd14aafa10b3","A","S","1","2","f","","null","<div style=""width:150px;height:56px;font-size:30px;text-align:center;"">correct!</div>","null","","","","","","","","","","","","","",""
"","","","","","html-keyboard-response","190","395035","0.0-13.0-0.10","6645e7e1762bc0cf47e364f6","641359b5040c453203e2c088","66460ce736c0bd14aafa10b3","A","S","1","2","f","","null","<div style=""font-size:60px;"">+</div>","null","","","","","","","","","","","","","",""
"","","","","","noisyLetter","191","398144","0.0-13.0-1.10","6645e7e1762bc0cf47e364f6","641359b5040c453203e2c088","66460ce736c0bd14aafa10b3","A","S","1","2","f","","","","f","1740.2000000029802","","","0.3","0.35","false","test2","1","S","f","true","1","1308.8999999985099",""
"","","","","","html-keyboard-response","192","399147","0.0-13.0-2.10","6645e7e1762bc0cf47e364f6","641359b5040c453203e2c088","66460ce736c0bd14aafa10b3","A","S","1","2","f","","null","<div style=""width:150px;height:56px;font-size:30px;text-align:center;"">correct!</div>","null","","","","","","","","","","","","","",""
"","","","","","html-keyboard-response","193","399777","0.0-13.0-0.11","6645e7e1762bc0cf47e364f6","641359b5040c453203e2c088","66460ce736c0bd14aafa10b3","A","S","1","2","f","","null","<div style=""font-size:60px;"">+</div>","null","","","","","","","","","","","","","",""
"","","","","","noisyLetter","194","409708","0.0-13.0-1.11","6645e7e1762bc0cf47e364f6","641359b5040c453203e2c088","66460ce736c0bd14aafa10b3","A","S","1","2","f","","","","g","112.89999999850988","","","0.3","0.1","false","test2","0","S","g","true","0.9890350877192983","9704.40000000596",""
"","","","","","html-keyboard-response","195","410709","0.0-13.0-2.11","6645e7e1762bc0cf47e364f6","641359b5040c453203e2c088","66460ce736c0bd14aafa10b3","A","S","1","2","f","","925","<div style=""width:150px;height:56px;font-size:30px;text-align:center;"">correct!</div>","f","","","","","","","","","","","","","",""
"","","","","","html-keyboard-response","196","411393","0.0-13.0-0.12","6645e7e1762bc0cf47e364f6","641359b5040c453203e2c088","66460ce736c0bd14aafa10b3","A","S","1","2","f","","null","<div style=""font-size:60px;"">+</div>","null","","","","","","","","","","","","","",""
"","","","","","noisyLetter","197","413289","0.0-13.0-1.12","6645e7e1762bc0cf47e364f6","641359b5040c453203e2c088","66460ce736c0bd14aafa10b3","A","S","1","2","f","","","","f","23.299999997019768","","","0.3","0.1","false","test2","0","S","g","false","0.7214912280701755","1791.5",""
"","","","","","html-keyboard-response","198","415795","0.0-13.0-2.12","6645e7e1762bc0cf47e364f6","641359b5040c453203e2c088","66460ce736c0bd14aafa10b3","A","S","1","2","f","","663","<div style=""width:150px;height:56px;border:0px;font-size:30px;text-align:center"">wrong.</div>","g","","","","","","","","","","","","","",""
"","","","","","html-keyboard-response","199","416331","0.0-13.0-0.13","6645e7e1762bc0cf47e364f6","641359b5040c453203e2c088","66460ce736c0bd14aafa10b3","A","S","1","2","f","","null","<div style=""font-size:60px;"">+</div>","null","","","","","","","","","","","","","",""
"","","","","","noisyLetter","200","418021","0.0-13.0-1.13","6645e7e1762bc0cf47e364f6","641359b5040c453203e2c088","66460ce736c0bd14aafa10b3","A","S","1","2","f","","","","g","102.79999999701977","","","0.3","0.1","false","test2","1","S","f","false","0.8092105263157895","1446.5",""
"","","","","","html-keyboard-response","201","420523","0.0-13.0-2.13","6645e7e1762bc0cf47e364f6","641359b5040c453203e2c088","66460ce736c0bd14aafa10b3","A","S","1","2","f","","1123","<div style=""width:150px;height:56px;border:0px;font-size:30px;text-align:center"">wrong.</div>","f","","","","","","","","","","","","","",""
"","","","","","html-keyboard-response","202","421418","0.0-13.0-0.14","6645e7e1762bc0cf47e364f6","641359b5040c453203e2c088","66460ce736c0bd14aafa10b3","A","S","1","2","f","","null","<div style=""font-size:60px;"">+</div>","null","","","","","","","","","","","","","",""
"","","","","","noisyLetter","203","423253","0.0-13.0-1.14","6645e7e1762bc0cf47e364f6","641359b5040c453203e2c088","66460ce736c0bd14aafa10b3","A","S","1","2","f","","","","f","91.89999999850988","","","0.3","0.35","false","test2","1","S","f","true","0.9473684210526316","1660.6999999955297",""
"","","","","","html-keyboard-response","204","424255","0.0-13.0-2.14","6645e7e1762bc0cf47e364f6","641359b5040c453203e2c088","66460ce736c0bd14aafa10b3","A","S","1","2","f","","null","<div style=""width:150px;height:56px;font-size:30px;text-align:center;"">correct!</div>","null","","","","","","","","","","","","","",""
"","","","","","html-keyboard-response","205","424909","0.0-13.0-0.15","6645e7e1762bc0cf47e364f6","641359b5040c453203e2c088","66460ce736c0bd14aafa10b3","A","S","1","2","f","","null","<div style=""font-size:60px;"">+</div>","null","","","","","","","","","","","","","",""
"","","","","","noisyLetter","206","427768","0.0-13.0-1.15","6645e7e1762bc0cf47e364f6","641359b5040c453203e2c088","66460ce736c0bd14aafa10b3","A","S","1","2","f","","","","f","1351","","","0.3","0.35","false","test2","0","S","g","false","0.9166666666666666","1397.2999999970198",""
"","","","","","html-keyboard-response","207","430270","0.0-13.0-2.15","6645e7e1762bc0cf47e364f6","641359b5040c453203e2c088","66460ce736c0bd14aafa10b3","A","S","1","2","f","","1256","<div style=""width:150px;height:56px;border:0px;font-size:30px;text-align:center"">wrong.</div>","g","","","","","","","","","","","","","",""
"","","","","","instructions","208","434464","0.0-14.0","6645e7e1762bc0cf47e364f6","641359b5040c453203e2c088","66460ce736c0bd14aafa10b3","A","S","1","2","f","[{""page_index"":0,""viewing_time"":4194}]","4194","","","","","","","","","","","","","","","",""
"","","","","","html-keyboard-response","209","435397","0.0-15.0-0.0","6645e7e1762bc0cf47e364f6","641359b5040c453203e2c088","66460ce736c0bd14aafa10b3","A","S","1","2","f","","null","<div style=""font-size:60px;"">+</div>","null","","","","","","","","","","","","","",""
"","","","","","noisyLetter","210","437182","0.0-15.0-1.0","6645e7e1762bc0cf47e364f6","641359b5040c453203e2c088","66460ce736c0bd14aafa10b3","A","S","1","2","f","","","","g","502.29999999701977","","","0.3","0.1","false","test2","0","S","g","true","0.9473684210526316","1183.7000000029802",""
"","","","","","html-keyboard-response","211","438185","0.0-15.0-2.0","6645e7e1762bc0cf47e364f6","641359b5040c453203e2c088","66460ce736c0bd14aafa10b3","A","S","1","2","f","","670","<div style=""width:150px;height:56px;font-size:30px;text-align:center;"">correct!</div>","f","","","","","","","","","","","","","",""
"","","","","","html-keyboard-response","212","438818","0.0-15.0-0.1","6645e7e1762bc0cf47e364f6","641359b5040c453203e2c088","66460ce736c0bd14aafa10b3","A","S","1","2","f","","null","<div style=""font-size:60px;"">+</div>","null","","","","","","","","","","","","","",""
"","","","","","noisyLetter","213","440581","0.0-15.0-1.1","6645e7e1762bc0cf47e364f6","641359b5040c453203e2c088","66460ce736c0bd14aafa10b3","A","S","1","2","f","","","","f","337.30000000447035","","","0.3","0.35","false","test2","1","S","f","true","1","1117.1999999955297",""
"","","","","","html-keyboard-response","214","441583","0.0-15.0-2.1","6645e7e1762bc0cf47e364f6","641359b5040c453203e2c088","66460ce736c0bd14aafa10b3","A","S","1","2","f","","null","<div style=""width:150px;height:56px;font-size:30px;text-align:center;"">correct!</div>","null","","","","","","","","","","","","","",""
"","","","","","html-keyboard-response","215","442568","0.0-15.0-0.2","6645e7e1762bc0cf47e364f6","641359b5040c453203e2c088","66460ce736c0bd14aafa10b3","A","S","1","2","f","","null","<div style=""font-size:60px;"">+</div>","null","","","","","","","","","","","","","",""
"","","","","","noisyLetter","216","444330","0.0-15.0-1.2","6645e7e1762bc0cf47e364f6","641359b5040c453203e2c088","66460ce736c0bd14aafa10b3","A","S","1","2","f","","","","g","61.399999998509884","","","0.3","0.35","false","test2","0","S","g","true","0.8640350877192983","1544.3999999985099",""
"","","","","","html-keyboard-response","217","445332","0.0-15.0-2.2","6645e7e1762bc0cf47e364f6","641359b5040c453203e2c088","66460ce736c0bd14aafa10b3","A","S","1","2","f","","null","<div style=""width:150px;height:56px;font-size:30px;text-align:center;"">correct!</div>","null","","","","","","","","","","","","","",""
"","","","","","html-keyboard-response","218","446290","0.0-15.0-0.3","6645e7e1762bc0cf47e364f6","641359b5040c453203e2c088","66460ce736c0bd14aafa10b3","A","S","1","2","f","","null","<div style=""font-size:60px;"">+</div>","null","","","","","","","","","","","","","",""
"","","","","","noisyLetter","219","448078","0.0-15.0-1.3","6645e7e1762bc0cf47e364f6","641359b5040c453203e2c088","66460ce736c0bd14aafa10b3","A","S","1","2","f","","","","g","146.90000000596046","","","0.3","0.1","false","test2","1","S","f","false","0.7214912280701755","1588.1999999955297",""
"","","","","","html-keyboard-response","220","450579","0.0-15.0-2.3","6645e7e1762bc0cf47e364f6","641359b5040c453203e2c088","66460ce736c0bd14aafa10b3","A","S","1","2","f","","1034","<div style=""width:150px;height:56px;border:0px;font-size:30px;text-align:center"">wrong.</div>","g","","","","","","","","","","","","","",""
"","","","","","html-keyboard-response","221","451476","0.0-15.0-0.4","6645e7e1762bc0cf47e364f6","641359b5040c453203e2c088","66460ce736c0bd14aafa10b3","A","S","1","2","f","","null","<div style=""font-size:60px;"">+</div>","null","","","","","","","","","","","","","",""
"","","","","","noisyLetter","222","453011","0.0-15.0-1.4","6645e7e1762bc0cf47e364f6","641359b5040c453203e2c088","66460ce736c0bd14aafa10b3","A","S","1","2","f","","","","g","64.60000000149012","","","0.3","0.1","false","test2","1","S","f","false","0.9144736842105263","1396.8999999985099",""
"","","","","","html-keyboard-response","223","455513","0.0-15.0-2.4","6645e7e1762bc0cf47e364f6","641359b5040c453203e2c088","66460ce736c0bd14aafa10b3","A","S","1","2","f","","954","<div style=""width:150px;height:56px;border:0px;font-size:30px;text-align:center"">wrong.</div>","f","","","","","","","","","","","","","",""
"","","","","","html-keyboard-response","224","456027","0.0-15.0-0.5","6645e7e1762bc0cf47e364f6","641359b5040c453203e2c088","66460ce736c0bd14aafa10b3","A","S","1","2","f","","null","<div style=""font-size:60px;"">+</div>","null","","","","","","","","","","","","","",""
"","","","","","noisyLetter","225","457876","0.0-15.0-1.5","6645e7e1762bc0cf47e364f6","641359b5040c453203e2c088","66460ce736c0bd14aafa10b3","A","S","1","2","f","","","","f","315.1000000014901","","","0.3","0.1","false","test2","0","S","g","false","1","1480.6999999955297",""
"","","","","","html-keyboard-response","226","460378","0.0-15.0-2.5","6645e7e1762bc0cf47e364f6","641359b5040c453203e2c088","66460ce736c0bd14aafa10b3","A","S","1","2","f","","1288","<div style=""width:150px;height:56px;border:0px;font-size:30px;text-align:center"">wrong.</div>","f","","","","","","","","","","","","","",""
"","","","","","html-keyboard-response","227","461014","0.0-15.0-0.6","6645e7e1762bc0cf47e364f6","641359b5040c453203e2c088","66460ce736c0bd14aafa10b3","A","S","1","2","f","","null","<div style=""font-size:60px;"">+</div>","null","","","","","","","","","","","","","",""
"","","","","","noisyLetter","228","462573","0.0-15.0-1.6","6645e7e1762bc0cf47e364f6","641359b5040c453203e2c088","66460ce736c0bd14aafa10b3","A","S","1","2","f","","","","f","70.20000000298023","","","0.3","0.35","false","test2","0","S","g","false","1","1423.5",""
"","","","","","html-keyboard-response","229","465075","0.0-15.0-2.6","6645e7e1762bc0cf47e364f6","641359b5040c453203e2c088","66460ce736c0bd14aafa10b3","A","S","1","2","f","","1182","<div style=""width:150px;height:56px;border:0px;font-size:30px;text-align:center"">wrong.</div>","g","","","","","","","","","","","","","",""
"","","","","","html-keyboard-response","230","465725","0.0-15.0-0.7","6645e7e1762bc0cf47e364f6","641359b5040c453203e2c088","66460ce736c0bd14aafa10b3","A","S","1","2","f","","null","<div style=""font-size:60px;"">+</div>","null","","","","","","","","","","","","","",""
"","","","","","noisyLetter","231","467590","0.0-15.0-1.7","6645e7e1762bc0cf47e364f6","641359b5040c453203e2c088","66460ce736c0bd14aafa10b3","A","S","1","2","f","","","","g","99.39999999850988","","","0.3","0.35","false","test2","1","S","f","false","0.8881578947368421","1695",""
"","","","","","html-keyboard-response","232","470092","0.0-15.0-2.7","6645e7e1762bc0cf47e364f6","641359b5040c453203e2c088","66460ce736c0bd14aafa10b3","A","S","1","2","f","","1214","<div style=""width:150px;height:56px;border:0px;font-size:30px;text-align:center"">wrong.</div>","g","","","","","","","","","","","","","",""
"","","","","","html-keyboard-response","233","470606","0.0-15.0-0.8","6645e7e1762bc0cf47e364f6","641359b5040c453203e2c088","66460ce736c0bd14aafa10b3","A","S","1","2","f","","null","<div style=""font-size:60px;"">+</div>","null","","","","","","","","","","","","","",""
"","","","","","noisyLetter","234","472471","0.0-15.0-1.8","6645e7e1762bc0cf47e364f6","641359b5040c453203e2c088","66460ce736c0bd14aafa10b3","A","S","1","2","f","","","","g","64.19999999552965","","","0.3","0.35","false","test2","0","S","g","true","0.8771929824561404","1691",""
"","","","","","html-keyboard-response","235","473473","0.0-15.0-2.8","6645e7e1762bc0cf47e364f6","641359b5040c453203e2c088","66460ce736c0bd14aafa10b3","A","S","1","2","f","","null","<div style=""width:150px;height:56px;font-size:30px;text-align:center;"">correct!</div>","null","","","","","","","","","","","","","",""
"","","","","","html-keyboard-response","236","474235","0.0-15.0-0.9","6645e7e1762bc0cf47e364f6","641359b5040c453203e2c088","66460ce736c0bd14aafa10b3","A","S","1","2","f","","null","<div style=""font-size:60px;"">+</div>","null","","","","","","","","","","","","","",""
"","","","","","noisyLetter","237","475754","0.0-15.0-1.9","6645e7e1762bc0cf47e364f6","641359b5040c453203e2c088","66460ce736c0bd14aafa10b3","A","S","1","2","f","","","","f","97.39999999850988","","","0.3","0.35","false","test2","1","S","f","true","0.9276315789473684","1304",""
"","","","","","html-keyboard-response","238","476756","0.0-15.0-2.9","6645e7e1762bc0cf47e364f6","641359b5040c453203e2c088","66460ce736c0bd14aafa10b3","A","S","1","2","f","","null","<div style=""width:150px;height:56px;font-size:30px;text-align:center;"">correct!</div>","null","","","","","","","","","","","","","",""
"","","","","","html-keyboard-response","239","477614","0.0-15.0-0.10","6645e7e1762bc0cf47e364f6","641359b5040c453203e2c088","66460ce736c0bd14aafa10b3","A","S","1","2","f","","null","<div style=""font-size:60px;"">+</div>","null","","","","","","","","","","","","","",""
"","","","","","noisyLetter","240","480303","0.0-15.0-1.10","6645e7e1762bc0cf47e364f6","641359b5040c453203e2c088","66460ce736c0bd14aafa10b3","A","S","1","2","f","","","","f","765.7999999970198","","","0.3","0.1","false","test2","0","S","g","false","1","1897.3000000044703",""
"","","","","","html-keyboard-response","241","482806","0.0-15.0-2.10","6645e7e1762bc0cf47e364f6","641359b5040c453203e2c088","66460ce736c0bd14aafa10b3","A","S","1","2","f","","1291","<div style=""width:150px;height:56px;border:0px;font-size:30px;text-align:center"">wrong.</div>","f","","","","","","","","","","","","","",""
"","","","","","html-keyboard-response","242","483431","0.0-15.0-0.11","6645e7e1762bc0cf47e364f6","641359b5040c453203e2c088","66460ce736c0bd14aafa10b3","A","S","1","2","f","","null","<div style=""font-size:60px;"">+</div>","null","","","","","","","","","","","","","",""
"","","","","","noisyLetter","243","484884","0.0-15.0-1.11","6645e7e1762bc0cf47e364f6","641359b5040c453203e2c088","66460ce736c0bd14aafa10b3","A","S","1","2","f","","","","f","4.700000002980232","","","0.3","0.1","false","test2","1","S","f","true","1","1380.5",""
"","","","","","html-keyboard-response","244","485884","0.0-15.0-2.11","6645e7e1762bc0cf47e364f6","641359b5040c453203e2c088","66460ce736c0bd14aafa10b3","A","S","1","2","f","","930","<div style=""width:150px;height:56px;font-size:30px;text-align:center;"">correct!</div>","f","","","","","","","","","","","","","",""
"","","","","","html-keyboard-response","245","486535","0.0-15.0-0.12","6645e7e1762bc0cf47e364f6","641359b5040c453203e2c088","66460ce736c0bd14aafa10b3","A","S","1","2","f","","null","<div style=""font-size:60px;"">+</div>","null","","","","","","","","","","","","","",""
"","","","","","noisyLetter","246","489498","0.0-15.0-1.12","6645e7e1762bc0cf47e364f6","641359b5040c453203e2c088","66460ce736c0bd14aafa10b3","A","S","1","2","f","","","","f","77.5","","","0.3","0.35","false","test2","1","S","f","true","0.8399122807017544","2798",""
"","","","","","html-keyboard-response","247","490499","0.0-15.0-2.12","6645e7e1762bc0cf47e364f6","641359b5040c453203e2c088","66460ce736c0bd14aafa10b3","A","S","1","2","f","","857","<div style=""width:150px;height:56px;font-size:30px;text-align:center;"">correct!</div>","g","","","","","","","","","","","","","",""
"","","","","","html-keyboard-response","248","491312","0.0-15.0-0.13","6645e7e1762bc0cf47e364f6","641359b5040c453203e2c088","66460ce736c0bd14aafa10b3","A","S","1","2","f","","null","<div style=""font-size:60px;"">+</div>","null","","","","","","","","","","","","","",""
"","","","","","noisyLetter","249","492865","0.0-15.0-1.13","6645e7e1762bc0cf47e364f6","641359b5040c453203e2c088","66460ce736c0bd14aafa10b3","A","S","1","2","f","","","","g","128.19999999552965","","","0.3","0.1","false","test2","0","S","g","true","0.7982456140350878","1402.6000000014901",""
"","","","","","html-keyboard-response","250","493867","0.0-15.0-2.13","6645e7e1762bc0cf47e364f6","641359b5040c453203e2c088","66460ce736c0bd14aafa10b3","A","S","1","2","f","","null","<div style=""width:150px;height:56px;font-size:30px;text-align:center;"">correct!</div>","null","","","","","","","","","","","","","",""
"","","","","","html-keyboard-response","251","494585","0.0-15.0-0.14","6645e7e1762bc0cf47e364f6","641359b5040c453203e2c088","66460ce736c0bd14aafa10b3","A","S","1","2","f","","null","<div style=""font-size:60px;"">+</div>","null","","","","","","","","","","","","","",""
"","","","","","noisyLetter","252","496464","0.0-15.0-1.14","6645e7e1762bc0cf47e364f6","641359b5040c453203e2c088","66460ce736c0bd14aafa10b3","A","S","1","2","f","","","","g","73.5","","","0.3","0.35","false","test2","0","S","g","true","0.9868421052631579","1698.8999999985099",""
"","","","","","html-keyboard-response","253","497466","0.0-15.0-2.14","6645e7e1762bc0cf47e364f6","641359b5040c453203e2c088","66460ce736c0bd14aafa10b3","A","S","1","2","f","","null","<div style=""width:150px;height:56px;font-size:30px;text-align:center;"">correct!</div>","null","","","","","","","","","","","","","",""
"","","","","","html-keyboard-response","254","498118","0.0-15.0-0.15","6645e7e1762bc0cf47e364f6","641359b5040c453203e2c088","66460ce736c0bd14aafa10b3","A","S","1","2","f","","null","<div style=""font-size:60px;"">+</div>","null","","","","","","","","","","","","","",""
"","","","","","noisyLetter","255","499578","0.0-15.0-1.15","6645e7e1762bc0cf47e364f6","641359b5040c453203e2c088","66460ce736c0bd14aafa10b3","A","S","1","2","f","","","","f","99.89999999850988","","","0.3","0.1","false","test2","1","S","f","true","1","1267",""
"","","","","","html-keyboard-response","256","500580","0.0-15.0-2.15","6645e7e1762bc0cf47e364f6","641359b5040c453203e2c088","66460ce736c0bd14aafa10b3","A","S","1","2","f","","null","<div style=""width:150px;height:56px;font-size:30px;text-align:center;"">correct!</div>","null","","","","","","","","","","","","","",""
"","","","","","survey-multi-choice","257","507480","0.0-16.0","6645e7e1762bc0cf47e364f6","641359b5040c453203e2c088","66460ce736c0bd14aafa10b3","A","S","1","2","f","","6898","","{""which_was_harder"":""Yes! It was harder when more of the display was hidden behind black lines.""}","","","","","","","","","","","","","","[0]"
"","","","","","survey-text","258","509333","0.0-17.0","6645e7e1762bc0cf47e364f6","641359b5040c453203e2c088","66460ce736c0bd14aafa10b3","A","S","1","2","f","","1830","","{""worker_comments"":""""}","","","","","","","","","","","","","",""
"","","","","","instructions","259","510879","0.0-18.0","6645e7e1762bc0cf47e364f6","641359b5040c453203e2c088","66460ce736c0bd14aafa10b3","A","S","1","2","f","[{""page_index"":0,""viewing_time"":1541}]","1541","","","","","","","","","","","","","","","",""
"success","timeout","failed_images","failed_audio","failed_video","trial_type","trial_index","time_elapsed","internal_node_id","STUDY_ID","PROLIFIC_PID","SESSION_ID","first_target","second_target","practice_loops","comprehension_visits","presence_key","view_history","rt","stimulus","response","RT","context_string","context_img","max_p","hide_proportion","descend","test_part","present","target","correct_response","correct","confidence","confidence_RT","question_order"
"true","false","[]","[]","[]","preload","0","38","0.0-0.0","6645e7e1762bc0cf47e364f6","62fb88be841f0dcba3db01ff","664a578be765f4b066ec0d9e","S","A","0","2","g","","","","","","","","","","","","","","","","","",""
"true","","","","","fullscreen","1","13420","0.0-1.0","6645e7e1762bc0cf47e364f6","62fb88be841f0dcba3db01ff","664a578be765f4b066ec0d9e","S","A","0","2","g","","","","","","","","","","","","","","","","","",""
"","","","","","instructions","2","38505","0.0-2.0","6645e7e1762bc0cf47e364f6","62fb88be841f0dcba3db01ff","664a578be765f4b066ec0d9e","S","A","0","2","g","[{""page_index"":0,""viewing_time"":6583},{""page_index"":1,""viewing_time"":7055},{""page_index"":2,""viewing_time"":11447}]","25085","","","","","","","","","","","","","","","",""
"","","","","","html-keyboard-response","3","39121","0.0-3.0-1.0-0.0","6645e7e1762bc0cf47e364f6","62fb88be841f0dcba3db01ff","664a578be765f4b066ec0d9e","S","A","0","2","g","","null","<div style=""font-size:60px;"">+</div>","null","","","","","","","","","","","","","",""
"","","","","","noisyLetter","4","47138","0.0-3.0-1.0-1.0","6645e7e1762bc0cf47e364f6","62fb88be841f0dcba3db01ff","664a578be765f4b066ec0d9e","S","A","0","2","g","","","","f","7715.200000017881","","","0.35","0","false","practice","0","S","f","true","","",""
"","","","","","html-keyboard-response","5","48641","0.0-3.0-1.0-2.0","6645e7e1762bc0cf47e364f6","62fb88be841f0dcba3db01ff","664a578be765f4b066ec0d9e","S","A","0","2","g","","null","<div style=""width:300px;height:56px;border:0px;font-size:30px;text-align:center"">Correct! This was just noise.</div>","null","","","","","","","","","","","","","",""
"","","","","","html-keyboard-response","6","49332","0.0-3.0-1.0-0.1","6645e7e1762bc0cf47e364f6","62fb88be841f0dcba3db01ff","664a578be765f4b066ec0d9e","S","A","0","2","g","","null","<div style=""font-size:60px;"">+</div>","null","","","","","","","","","","","","","",""
"","","","","","noisyLetter","7","52303","0.0-3.0-1.0-1.1","6645e7e1762bc0cf47e364f6","62fb88be841f0dcba3db01ff","664a578be765f4b066ec0d9e","S","A","0","2","g","","","","g","2674","","","0.35","0","false","practice","1","S","g","true","","",""
"","","","","","html-keyboard-response","8","53806","0.0-3.0-1.0-2.1","6645e7e1762bc0cf47e364f6","62fb88be841f0dcba3db01ff","664a578be765f4b066ec0d9e","S","A","0","2","g","","null","<div style=""width:300px;height:56px;font-size:30px;text-align:center;"">Correct! You detected the letter.</div>","null","","","","","","","","","","","","","",""
"","","","","","html-keyboard-response","9","54381","0.0-3.0-1.0-0.2","6645e7e1762bc0cf47e364f6","62fb88be841f0dcba3db01ff","664a578be765f4b066ec0d9e","S","A","0","2","g","","null","<div style=""font-size:60px;"">+</div>","null","","","","","","","","","","","","","",""
"","","","","","noisyLetter","10","57037","0.0-3.0-1.0-1.2","6645e7e1762bc0cf47e364f6","62fb88be841f0dcba3db01ff","664a578be765f4b066ec0d9e","S","A","0","2","g","","","","f","2376.5","","","0.35","0","false","practice","0","S","f","true","","",""
"","","","","","html-keyboard-response","11","58540","0.0-3.0-1.0-2.2","6645e7e1762bc0cf47e364f6","62fb88be841f0dcba3db01ff","664a578be765f4b066ec0d9e","S","A","0","2","g","","null","<div style=""width:300px;height:56px;border:0px;font-size:30px;text-align:center"">Correct! This was just noise.</div>","null","","","","","","","","","","","","","",""
"","","","","","html-keyboard-response","12","59280","0.0-3.0-1.0-0.3","6645e7e1762bc0cf47e364f6","62fb88be841f0dcba3db01ff","664a578be765f4b066ec0d9e","S","A","0","2","g","","null","<div style=""font-size:60px;"">+</div>","null","","","","","","","","","","","","","",""
"","","","","","noisyLetter","13","61387","0.0-3.0-1.0-1.3","6645e7e1762bc0cf47e364f6","62fb88be841f0dcba3db01ff","664a578be765f4b066ec0d9e","S","A","0","2","g","","","","g","1828.5999999940395","","","0.35","0","false","practice","1","S","g","true","","",""
"","","","","","html-keyboard-response","14","62890","0.0-3.0-1.0-2.3","6645e7e1762bc0cf47e364f6","62fb88be841f0dcba3db01ff","664a578be765f4b066ec0d9e","S","A","0","2","g","","null","<div style=""width:300px;height:56px;font-size:30px;text-align:center;"">Correct! You detected the letter.</div>","null","","","","","","","","","","","","","",""
"","","","","","instructions","15","69361","0.0-4.0","6645e7e1762bc0cf47e364f6","62fb88be841f0dcba3db01ff","664a578be765f4b066ec0d9e","S","A","0","2","g","[{""page_index"":0,""viewing_time"":5310},{""page_index"":1,""viewing_time"":1157}]","6468","","","","","","","","","","","","","","","",""
"","","","","","html-keyboard-response","16","69890","0.0-5.0-1.0-0.0-0.0","6645e7e1762bc0cf47e364f6","62fb88be841f0dcba3db01ff","664a578be765f4b066ec0d9e","S","A","0","2","g","","null","<div style=""font-size:60px;"">+</div>","null","","","","","","","","","","","","","",""
"","","","","","noisyLetter","17","76537","0.0-5.0-1.0-0.0-1.0","6645e7e1762bc0cf47e364f6","62fb88be841f0dcba3db01ff","664a578be765f4b066ec0d9e","S","A","0","2","g","","","","f","3615.9000000059605","","","0.35","0","false","practice","0","S","f","true","0.8377777777777777","2983.9000000059605",""
"","","","","","html-keyboard-response","18","77452","0.0-5.0-1.0-0.0-0.1","6645e7e1762bc0cf47e364f6","62fb88be841f0dcba3db01ff","664a578be765f4b066ec0d9e","S","A","0","2","g","","null","<div style=""font-size:60px;"">+</div>","null","","","","","","","","","","","","","",""
"","","","","","noisyLetter","19","80570","0.0-5.0-1.0-0.0-1.1","6645e7e1762bc0cf47e364f6","62fb88be841f0dcba3db01ff","664a578be765f4b066ec0d9e","S","A","0","2","g","","","","g","1908.5","","","0.35","0","false","practice","1","S","g","true","1","1131.300000011921",""
"","","","","","html-keyboard-response","20","81573","0.0-5.0-1.0-0.0-0.2","6645e7e1762bc0cf47e364f6","62fb88be841f0dcba3db01ff","664a578be765f4b066ec0d9e","S","A","0","2","g","","null","<div style=""font-size:60px;"">+</div>","null","","","","","","","","","","","","","",""
"","","","","","noisyLetter","21","86703","0.0-5.0-1.0-0.0-1.2","6645e7e1762bc0cf47e364f6","62fb88be841f0dcba3db01ff","664a578be765f4b066ec0d9e","S","A","0","2","g","","","","g","2940.7999999821186","","","0.35","0","false","practice","1","S","g","true","1","2081.800000011921",""
"","","","","","html-keyboard-response","22","87369","0.0-5.0-1.0-0.0-0.3","6645e7e1762bc0cf47e364f6","62fb88be841f0dcba3db01ff","664a578be765f4b066ec0d9e","S","A","0","2","g","","null","<div style=""font-size:60px;"">+</div>","null","","","","","","","","","","","","","",""
"","","","","","noisyLetter","23","90555","0.0-5.0-1.0-0.0-1.3","6645e7e1762bc0cf47e364f6","62fb88be841f0dcba3db01ff","664a578be765f4b066ec0d9e","S","A","0","2","g","","","","f","1663.699999988079","","","0.35","0","false","practice","0","S","f","true","0.8977777777777778","1456.300000011921",""
"","","","","","survey-multi-choice","24","98268","0.0-5.0-1.0-1.0","6645e7e1762bc0cf47e364f6","62fb88be841f0dcba3db01ff","664a578be765f4b066ec0d9e","S","A","0","2","g","","7710","","{""multichoice_confidence"":""""}","","","","","","","","","","","","","","[0]"
"","","","","","instructions","25","102016","0.0-5.1-0.1-0.1","6645e7e1762bc0cf47e364f6","62fb88be841f0dcba3db01ff","664a578be765f4b066ec0d9e","S","A","0","2","g","[{""page_index"":0,""viewing_time"":3744}]","3744","","","","","","","","","","","","","","","",""
"","","","","","html-keyboard-response","26","102780","0.0-5.1-1.1-0.1-0.4","6645e7e1762bc0cf47e364f6","62fb88be841f0dcba3db01ff","664a578be765f4b066ec0d9e","S","A","0","2","g","","null","<div style=""font-size:60px;"">+</div>","null","","","","","","","","","","","","","",""
"","","","","","noisyLetter","27","106820","0.0-5.1-1.1-0.1-1.4","6645e7e1762bc0cf47e364f6","62fb88be841f0dcba3db01ff","664a578be765f4b066ec0d9e","S","A","0","2","g","","","","g","2490.800000011921","","","0.35","0","false","practice","1","S","g","true","0.9911111111111112","1506.199999988079",""
"","","","","","html-keyboard-response","28","107745","0.0-5.1-1.1-0.1-0.5","6645e7e1762bc0cf47e364f6","62fb88be841f0dcba3db01ff","664a578be765f4b066ec0d9e","S","A","0","2","g","","null","<div style=""font-size:60px;"">+</div>","null","","","","","","","","","","","","","",""
"","","","","","noisyLetter","29","111321","0.0-5.1-1.1-0.1-1.5","6645e7e1762bc0cf47e364f6","62fb88be841f0dcba3db01ff","664a578be765f4b066ec0d9e","S","A","0","2","g","","","","f","2215","","","0.35","0","false","practice","0","S","f","true","0.8088888888888889","1277.300000011921",""
"","","","","","html-keyboard-response","30","112053","0.0-5.1-1.1-0.1-0.6","6645e7e1762bc0cf47e364f6","62fb88be841f0dcba3db01ff","664a578be765f4b066ec0d9e","S","A","0","2","g","","null","<div style=""font-size:60px;"">+</div>","null","","","","","","","","","","","","","",""
"","","","","","noisyLetter","31","116437","0.0-5.1-1.1-0.1-1.6","6645e7e1762bc0cf47e364f6","62fb88be841f0dcba3db01ff","664a578be765f4b066ec0d9e","S","A","0","2","g","","","","f","2733.5","","","0.35","0","false","practice","0","S","f","true","0.5266666666666666","1552.4000000059605",""
"","","","","","html-keyboard-response","32","117087","0.0-5.1-1.1-0.1-0.7","6645e7e1762bc0cf47e364f6","62fb88be841f0dcba3db01ff","664a578be765f4b066ec0d9e","S","A","0","2","g","","null","<div style=""font-size:60px;"">+</div>","null","","","","","","","","","","","","","",""
"","","","","","noisyLetter","33","120003","0.0-5.1-1.1-0.1-1.7","6645e7e1762bc0cf47e364f6","62fb88be841f0dcba3db01ff","664a578be765f4b066ec0d9e","S","A","0","2","g","","","","g","1525.5","","","0.35","0","false","practice","1","S","g","true","0.9422222222222222","1304.2000000178814",""
"","","","","","survey-multi-choice","34","125701","0.0-5.1-1.1-1.1","6645e7e1762bc0cf47e364f6","62fb88be841f0dcba3db01ff","664a578be765f4b066ec0d9e","S","A","0","2","g","","5694","","{""multichoice_confidence"":""2. very confident that there was no letter in the noise.""}","","","","","","","","","","","","","","[0]"
"","","","","","instructions","35","138656","0.0-6.0","6645e7e1762bc0cf47e364f6","62fb88be841f0dcba3db01ff","664a578be765f4b066ec0d9e","S","A","0","2","g","[{""page_index"":0,""viewing_time"":6966},{""page_index"":1,""viewing_time"":5984}]","12951","","","","","","","","","","","","","","","",""
"","","","","","html-keyboard-response","36","139179","0.0-7.0-0.0","6645e7e1762bc0cf47e364f6","62fb88be841f0dcba3db01ff","664a578be765f4b066ec0d9e","S","A","0","2","g","","null","<div style=""font-size:60px;"">+</div>","null","","","","","","","","","","","","","",""
"","","","","","noisyLetter","37","145671","0.0-7.0-1.0","6645e7e1762bc0cf47e364f6","62fb88be841f0dcba3db01ff","664a578be765f4b066ec0d9e","S","A","0","2","g","","","","f","4550.700000017881","","","0.3","0.1","false","test1","0","S","f","true","0.6222222222222222","1911.699999988079",""
"","","","","","html-keyboard-response","38","146673","0.0-7.0-2.0","6645e7e1762bc0cf47e364f6","62fb88be841f0dcba3db01ff","664a578be765f4b066ec0d9e","S","A","0","2","g","","null","<div style=""width:150px;height:56px;font-size:30px;text-align:center;"">correct!</div>","null","","","","","","","","","","","","","",""
"","","","","","html-keyboard-response","39","147566","0.0-7.0-0.1","6645e7e1762bc0cf47e364f6","62fb88be841f0dcba3db01ff","664a578be765f4b066ec0d9e","S","A","0","2","g","","null","<div style=""font-size:60px;"">+</div>","null","","","","","","","","","","","","","",""
"","","","","","noisyLetter","40","151953","0.0-7.0-1.1","6645e7e1762bc0cf47e364f6","62fb88be841f0dcba3db01ff","664a578be765f4b066ec0d9e","S","A","0","2","g","","","","g","2783.4000000059605","","","0.3","0.1","false","test1","1","S","g","true","0.5066666666666666","1539.3999999761581",""
"","","","","","html-keyboard-response","41","152955","0.0-7.0-2.1","6645e7e1762bc0cf47e364f6","62fb88be841f0dcba3db01ff","664a578be765f4b066ec0d9e","S","A","0","2","g","","null","<div style=""width:150px;height:56px;font-size:30px;text-align:center;"">correct!</div>","null","","","","","","","","","","","","","",""
"","","","","","html-keyboard-response","42","153733","0.0-7.0-0.2","6645e7e1762bc0cf47e364f6","62fb88be841f0dcba3db01ff","664a578be765f4b066ec0d9e","S","A","0","2","g","","null","<div style=""font-size:60px;"">+</div>","null","","","","","","","","","","","","","",""
"","","","","","noisyLetter","43","157636","0.0-7.0-1.2","6645e7e1762bc0cf47e364f6","62fb88be841f0dcba3db01ff","664a578be765f4b066ec0d9e","S","A","0","2","g","","","","g","2282.0999999940395","","","0.3","0.35","false","test1","1","S","g","true","0.3466666666666667","1546",""
"","","","","","html-keyboard-response","44","158638","0.0-7.0-2.2","6645e7e1762bc0cf47e364f6","62fb88be841f0dcba3db01ff","664a578be765f4b066ec0d9e","S","A","0","2","g","","null","<div style=""width:150px;height:56px;font-size:30px;text-align:center;"">correct!</div>","null","","","","","","","","","","","","","",""
"","","","","","html-keyboard-response","45","159228","0.0-7.0-0.3","6645e7e1762bc0cf47e364f6","62fb88be841f0dcba3db01ff","664a578be765f4b066ec0d9e","S","A","0","2","g","","null","<div style=""font-size:60px;"">+</div>","null","","","","","","","","","","","","","",""
"","","","","","noisyLetter","46","163337","0.0-7.0-1.3","6645e7e1762bc0cf47e364f6","62fb88be841f0dcba3db01ff","664a578be765f4b066ec0d9e","S","A","0","2","g","","","","f","2405.2999999821186","","","0.3","0.35","false","test1","0","S","f","true","0.6288888888888888","1638",""
"","","","","","html-keyboard-response","47","164339","0.0-7.0-2.3","6645e7e1762bc0cf47e364f6","62fb88be841f0dcba3db01ff","664a578be765f4b066ec0d9e","S","A","0","2","g","","null","<div style=""width:150px;height:56px;font-size:30px;text-align:center;"">correct!</div>","null","","","","","","","","","","","","","",""
"","","","","","html-keyboard-response","48","165063","0.0-7.0-0.4","6645e7e1762bc0cf47e364f6","62fb88be841f0dcba3db01ff","664a578be765f4b066ec0d9e","S","A","0","2","g","","null","<div style=""font-size:60px;"">+</div>","null","","","","","","","","","","","","","",""
"","","","","","noisyLetter","49","168436","0.0-7.0-1.4","6645e7e1762bc0cf47e364f6","62fb88be841f0dcba3db01ff","664a578be765f4b066ec0d9e","S","A","0","2","g","","","","f","1881.2999999821186","","","0.3","0.1","false","test1","0","S","f","true","0.6911111111111111","1438.2000000178814",""
"","","","","","html-keyboard-response","50","169439","0.0-7.0-2.4","6645e7e1762bc0cf47e364f6","62fb88be841f0dcba3db01ff","664a578be765f4b066ec0d9e","S","A","0","2","g","","null","<div style=""width:150px;height:56px;font-size:30px;text-align:center;"">correct!</div>","null","","","","","","","","","","","","","",""
"","","","","","html-keyboard-response","51","170349","0.0-7.0-0.5","6645e7e1762bc0cf47e364f6","62fb88be841f0dcba3db01ff","664a578be765f4b066ec0d9e","S","A","0","2","g","","null","<div style=""font-size:60px;"">+</div>","null","","","","","","","","","","","","","",""
"","","","","","noisyLetter","52","173436","0.0-7.0-1.5","6645e7e1762bc0cf47e364f6","62fb88be841f0dcba3db01ff","664a578be765f4b066ec0d9e","S","A","0","2","g","","","","f","1812.2000000178814","","","0.3","0.35","false","test1","0","S","f","true","0.7666666666666666","1207.199999988079",""
"","","","","","html-keyboard-response","53","174437","0.0-7.0-2.5","6645e7e1762bc0cf47e364f6","62fb88be841f0dcba3db01ff","664a578be765f4b066ec0d9e","S","A","0","2","g","","null","<div style=""width:150px;height:56px;font-size:30px;text-align:center;"">correct!</div>","null","","","","","","","","","","","","","",""
"","","","","","html-keyboard-response","54","175131","0.0-7.0-0.6","6645e7e1762bc0cf47e364f6","62fb88be841f0dcba3db01ff","664a578be765f4b066ec0d9e","S","A","0","2","g","","null","<div style=""font-size:60px;"">+</div>","null","","","","","","","","","","","","","",""
"","","","","","noisyLetter","55","177952","0.0-7.0-1.6","6645e7e1762bc0cf47e364f6","62fb88be841f0dcba3db01ff","664a578be765f4b066ec0d9e","S","A","0","2","g","","","","g","1633.7000000178814","","","0.3","0.1","false","test1","1","S","g","true","0.9244444444444444","1134.699999988079",""
"","","","","","html-keyboard-response","56","178955","0.0-7.0-2.6","6645e7e1762bc0cf47e364f6","62fb88be841f0dcba3db01ff","664a578be765f4b066ec0d9e","S","A","0","2","g","","null","<div style=""width:150px;height:56px;font-size:30px;text-align:center;"">correct!</div>","null","","","","","","","","","","","","","",""
"","","","","","html-keyboard-response","57","179501","0.0-7.0-0.7","6645e7e1762bc0cf47e364f6","62fb88be841f0dcba3db01ff","664a578be765f4b066ec0d9e","S","A","0","2","g","","null","<div style=""font-size:60px;"">+</div>","null","","","","","","","","","","","","","",""
"","","","","","noisyLetter","58","183220","0.0-7.0-1.7","6645e7e1762bc0cf47e364f6","62fb88be841f0dcba3db01ff","664a578be765f4b066ec0d9e","S","A","0","2","g","","","","f","2312.5","","","0.3","0.35","false","test1","1","S","g","false","0.2977777777777778","1357.5",""
"","","","","","html-keyboard-response","59","185722","0.0-7.0-2.7","6645e7e1762bc0cf47e364f6","62fb88be841f0dcba3db01ff","664a578be765f4b066ec0d9e","S","A","0","2","g","","null","<div style=""width:150px;height:56px;border:0px;font-size:30px;text-align:center"">wrong.</div>","null","","","","","","","","","","","","","",""
"","","","","","html-keyboard-response","60","186616","0.0-7.0-0.8","6645e7e1762bc0cf47e364f6","62fb88be841f0dcba3db01ff","664a578be765f4b066ec0d9e","S","A","0","2","g","","null","<div style=""font-size:60px;"">+</div>","null","","","","","","","","","","","","","",""
"","","","","","noisyLetter","61","189403","0.0-7.0-1.8","6645e7e1762bc0cf47e364f6","62fb88be841f0dcba3db01ff","664a578be765f4b066ec0d9e","S","A","0","2","g","","","","f","1648.300000011921","","","0.3","0.1","false","test1","0","S","f","true","0.8288888888888889","1057.2999999821186",""
"","","","","","html-keyboard-response","62","190404","0.0-7.0-2.8","6645e7e1762bc0cf47e364f6","62fb88be841f0dcba3db01ff","664a578be765f4b066ec0d9e","S","A","0","2","g","","null","<div style=""width:150px;height:56px;font-size:30px;text-align:center;"">correct!</div>","null","","","","","","","","","","","","","",""
"","","","","","html-keyboard-response","63","191253","0.0-7.0-0.9","6645e7e1762bc0cf47e364f6","62fb88be841f0dcba3db01ff","664a578be765f4b066ec0d9e","S","A","0","2","g","","null","<div style=""font-size:60px;"">+</div>","null","","","","","","","","","","","","","",""
"","","","","","noisyLetter","64","194020","0.0-7.0-1.9","6645e7e1762bc0cf47e364f6","62fb88be841f0dcba3db01ff","664a578be765f4b066ec0d9e","S","A","0","2","g","","","","g","1708.7000000178814","","","0.3","0.35","false","test1","1","S","g","true","0.7288888888888889","1031.7999999821186",""
"","","","","","html-keyboard-response","65","195021","0.0-7.0-2.9","6645e7e1762bc0cf47e364f6","62fb88be841f0dcba3db01ff","664a578be765f4b066ec0d9e","S","A","0","2","g","","null","<div style=""width:150px;height:56px;font-size:30px;text-align:center;"">correct!</div>","null","","","","","","","","","","","","","",""
"","","","","","html-keyboard-response","66","195838","0.0-7.0-0.10","6645e7e1762bc0cf47e364f6","62fb88be841f0dcba3db01ff","664a578be765f4b066ec0d9e","S","A","0","2","g","","null","<div style=""font-size:60px;"">+</div>","null","","","","","","","","","","","","","",""
"","","","","","noisyLetter","67","200019","0.0-7.0-1.10","6645e7e1762bc0cf47e364f6","62fb88be841f0dcba3db01ff","664a578be765f4b066ec0d9e","S","A","0","2","g","","","","f","2834.300000011921","","","0.3","0.35","false","test1","0","S","f","true","0.29333333333333333","1292.3999999761581",""
"","","","","","html-keyboard-response","68","201021","0.0-7.0-2.10","6645e7e1762bc0cf47e364f6","62fb88be841f0dcba3db01ff","664a578be765f4b066ec0d9e","S","A","0","2","g","","null","<div style=""width:150px;height:56px;font-size:30px;text-align:center;"">correct!</div>","null","","","","","","","","","","","","","",""
"","","","","","html-keyboard-response","69","201722","0.0-7.0-0.11","6645e7e1762bc0cf47e364f6","62fb88be841f0dcba3db01ff","664a578be765f4b066ec0d9e","S","A","0","2","g","","null","<div style=""font-size:60px;"">+</div>","null","","","","","","","","","","","","","",""
"","","","","","noisyLetter","70","204702","0.0-7.0-1.11","6645e7e1762bc0cf47e364f6","62fb88be841f0dcba3db01ff","664a578be765f4b066ec0d9e","S","A","0","2","g","","","","g","2004.4000000059605","","","0.3","0.1","false","test1","1","S","g","true","0.8644444444444445","912.5999999940395",""
"","","","","","html-keyboard-response","71","205704","0.0-7.0-2.11","6645e7e1762bc0cf47e364f6","62fb88be841f0dcba3db01ff","664a578be765f4b066ec0d9e","S","A","0","2","g","","null","<div style=""width:150px;height:56px;font-size:30px;text-align:center;"">correct!</div>","null","","","","","","","","","","","","","",""
"","","","","","html-keyboard-response","72","206380","0.0-7.0-0.12","6645e7e1762bc0cf47e364f6","62fb88be841f0dcba3db01ff","664a578be765f4b066ec0d9e","S","A","0","2","g","","null","<div style=""font-size:60px;"">+</div>","null","","","","","","","","","","","","","",""
"","","","","","noisyLetter","73","209686","0.0-7.0-1.12","6645e7e1762bc0cf47e364f6","62fb88be841f0dcba3db01ff","664a578be765f4b066ec0d9e","S","A","0","2","g","","","","f","2004.699999988079","","","0.3","0.35","false","test1","0","S","f","true","0.21777777777777774","1230.300000011921",""
"","","","","","html-keyboard-response","74","210688","0.0-7.0-2.12","6645e7e1762bc0cf47e364f6","62fb88be841f0dcba3db01ff","664a578be765f4b066ec0d9e","S","A","0","2","g","","null","<div style=""width:150px;height:56px;font-size:30px;text-align:center;"">correct!</div>","null","","","","","","","","","","","","","",""
"","","","","","html-keyboard-response","75","211231","0.0-7.0-0.13","6645e7e1762bc0cf47e364f6","62fb88be841f0dcba3db01ff","664a578be765f4b066ec0d9e","S","A","0","2","g","","null","<div style=""font-size:60px;"">+</div>","null","","","","","","","","","","","","","",""
"","","","","","noisyLetter","76","215019","0.0-7.0-1.13","6645e7e1762bc0cf47e364f6","62fb88be841f0dcba3db01ff","664a578be765f4b066ec0d9e","S","A","0","2","g","","","","f","2574.0999999940395","","","0.3","0.1","false","test1","1","S","g","false","0.14888888888888885","1135.2999999821186",""
"","","","","","html-keyboard-response","77","217522","0.0-7.0-2.13","6645e7e1762bc0cf47e364f6","62fb88be841f0dcba3db01ff","664a578be765f4b066ec0d9e","S","A","0","2","g","","null","<div style=""width:150px;height:56px;border:0px;font-size:30px;text-align:center"">wrong.</div>","null","","","","","","","","","","","","","",""
"","","","","","html-keyboard-response","78","218369","0.0-7.0-0.14","6645e7e1762bc0cf47e364f6","62fb88be841f0dcba3db01ff","664a578be765f4b066ec0d9e","S","A","0","2","g","","null","<div style=""font-size:60px;"">+</div>","null","","","","","","","","","","","","","",""
"","","","","","noisyLetter","79","221552","0.0-7.0-1.14","6645e7e1762bc0cf47e364f6","62fb88be841f0dcba3db01ff","664a578be765f4b066ec0d9e","S","A","0","2","g","","","","g","1933.2999999821186","","","0.3","0.35","false","test1","1","S","g","true","0","1160.2000000178814",""
"","","","","","html-keyboard-response","80","222556","0.0-7.0-2.14","6645e7e1762bc0cf47e364f6","62fb88be841f0dcba3db01ff","664a578be765f4b066ec0d9e","S","A","0","2","g","","null","<div style=""width:150px;height:56px;font-size:30px;text-align:center;"">correct!</div>","null","","","","","","","","","","","","","",""
"","","","","","html-keyboard-response","81","223461","0.0-7.0-0.15","6645e7e1762bc0cf47e364f6","62fb88be841f0dcba3db01ff","664a578be765f4b066ec0d9e","S","A","0","2","g","","null","<div style=""font-size:60px;"">+</div>","null","","","","","","","","","","","","","",""
