"success","timeout","failed_images","failed_audio","failed_video","trial_type","trial_index","time_elapsed","internal_node_id","STUDY_ID","PROLIFIC_PID","SESSION_ID","first_target","second_target","practice_loops","comprehension_visits","presence_key","view_history","rt","stimulus","response","RT","context_string","context_img","max_p","hide_proportion","descend","test_part","present","target","correct_response","correct","confidence","confidence_RT","question_order"
"true","false","[]","[]","[]","preload","0","116","0.0-0.0","665cb148a4fac709b6b9333a","5acd7cb2e9d7a30001c2cc45","665cb1848fe175472efca253","A","S","1","2","f","","","","","","","","","","","","","","","","","",""
"true","","","","","fullscreen","1","4067","0.0-1.0","665cb148a4fac709b6b9333a","5acd7cb2e9d7a30001c2cc45","665cb1848fe175472efca253","A","S","1","2","f","","","","","","","","","","","","","","","","","",""
"","","","","","instructions","2","38277","0.0-2.0","665cb148a4fac709b6b9333a","5acd7cb2e9d7a30001c2cc45","665cb1848fe175472efca253","A","S","1","2","f","[{""page_index"":0,""viewing_time"":7951},{""page_index"":1,""viewing_time"":9190},{""page_index"":2,""viewing_time"":17068}]","34209","","","","","","","","","","","","","","","",""
"","","","","","html-keyboard-response","3","39216","0.0-3.0-1.0-0.0","665cb148a4fac709b6b9333a","5acd7cb2e9d7a30001c2cc45","665cb1848fe175472efca253","A","S","1","2","f","","null","<div style=""font-size:60px;"">+</div>","null","","","","","","","","","","","","","",""
"","","","","","noisyLetter","4","50317","0.0-3.0-1.0-1.0","665cb148a4fac709b6b9333a","5acd7cb2e9d7a30001c2cc45","665cb1848fe175472efca253","A","S","1","2","f","","","","g","10736.80000000447","","","0.35","0","false","practice","0","A","g","true","","",""
"","","","","","html-keyboard-response","5","51824","0.0-3.0-1.0-2.0","665cb148a4fac709b6b9333a","5acd7cb2e9d7a30001c2cc45","665cb1848fe175472efca253","A","S","1","2","f","","null","<div style=""width:300px;height:56px;border:0px;font-size:30px;text-align:center"">Correct! This was just noise.</div>","null","","","","","","","","","","","","","",""
"","","","","","html-keyboard-response","6","52760","0.0-3.0-1.0-0.1","665cb148a4fac709b6b9333a","5acd7cb2e9d7a30001c2cc45","665cb1848fe175472efca253","A","S","1","2","f","","null","<div style=""font-size:60px;"">+</div>","null","","","","","","","","","","","","","",""
"","","","","","noisyLetter","7","57033","0.0-3.0-1.0-1.1","665cb148a4fac709b6b9333a","5acd7cb2e9d7a30001c2cc45","665cb1848fe175472efca253","A","S","1","2","f","","","","g","3917.39999999851","","","0.35","0","false","practice","1","A","f","false","","",""
"","","","","","html-keyboard-response","8","60040","0.0-3.0-1.0-2.1","665cb148a4fac709b6b9333a","5acd7cb2e9d7a30001c2cc45","665cb1848fe175472efca253","A","S","1","2","f","","null","<div style=""width:300px;height:56px;border:0px;font-size:30px;text-align:center"">Wrong. You missed the letter.</div>","null","","","","","","","","","","","","","",""
"","","","","","html-keyboard-response","9","60835","0.0-3.0-1.0-0.2","665cb148a4fac709b6b9333a","5acd7cb2e9d7a30001c2cc45","665cb1848fe175472efca253","A","S","1","2","f","","null","<div style=""font-size:60px;"">+</div>","null","","","","","","","","","","","","","",""
"","","","","","noisyLetter","10","70583","0.0-3.0-1.0-1.2","665cb148a4fac709b6b9333a","5acd7cb2e9d7a30001c2cc45","665cb1848fe175472efca253","A","S","1","2","f","","","","g","9385.09999999404","","","0.35","0","false","practice","1","A","f","false","","",""
"","","","","","html-keyboard-response","11","73588","0.0-3.0-1.0-2.2","665cb148a4fac709b6b9333a","5acd7cb2e9d7a30001c2cc45","665cb1848fe175472efca253","A","S","1","2","f","","null","<div style=""width:300px;height:56px;border:0px;font-size:30px;text-align:center"">Wrong. You missed the letter.</div>","null","","","","","","","","","","","","","",""
"","","","","","html-keyboard-response","12","74463","0.0-3.0-1.0-0.3","665cb148a4fac709b6b9333a","5acd7cb2e9d7a30001c2cc45","665cb1848fe175472efca253","A","S","1","2","f","","null","<div style=""font-size:60px;"">+</div>","null","","","","","","","","","","","","","",""
"","","","","","noisyLetter","13","77599","0.0-3.0-1.0-1.3","665cb148a4fac709b6b9333a","5acd7cb2e9d7a30001c2cc45","665cb1848fe175472efca253","A","S","1","2","f","","","","g","2743.39999999851","","","0.35","0","false","practice","0","A","g","true","","",""
"","","","","","html-keyboard-response","14","79103","0.0-3.0-1.0-2.3","665cb148a4fac709b6b9333a","5acd7cb2e9d7a30001c2cc45","665cb1848fe175472efca253","A","S","1","2","f","","null","<div style=""width:300px;height:56px;border:0px;font-size:30px;text-align:center"">Correct! This was just noise.</div>","null","","","","","","","","","","","","","",""
"","","","","","instructions","15","88813","0.0-3.1-0.1-0.1","665cb148a4fac709b6b9333a","5acd7cb2e9d7a30001c2cc45","665cb1848fe175472efca253","A","S","1","2","f","[{""page_index"":0,""viewing_time"":9706}]","9706","","","","","","","","","","","","","","","",""
"","","","","","html-keyboard-response","16","89807","0.0-3.1-1.1-0.4","665cb148a4fac709b6b9333a","5acd7cb2e9d7a30001c2cc45","665cb1848fe175472efca253","A","S","1","2","f","","null","<div style=""font-size:60px;"">+</div>","null","","","","","","","","","","","","","",""
"","","","","","noisyLetter","17","98416","0.0-3.1-1.1-1.4","665cb148a4fac709b6b9333a","5acd7cb2e9d7a30001c2cc45","665cb1848fe175472efca253","A","S","1","2","f","","","","f","8273.09999999404","","","0.35","0","false","practice","1","A","f","true","","",""
"","","","","","html-keyboard-response","18","99923","0.0-3.1-1.1-2.4","665cb148a4fac709b6b9333a","5acd7cb2e9d7a30001c2cc45","665cb1848fe175472efca253","A","S","1","2","f","","null","<div style=""width:300px;height:56px;font-size:30px;text-align:center;"">Correct! You detected the letter.</div>","null","","","","","","","","","","","","","",""
"","","","","","html-keyboard-response","19","100815","0.0-3.1-1.1-0.5","665cb148a4fac709b6b9333a","5acd7cb2e9d7a30001c2cc45","665cb1848fe175472efca253","A","S","1","2","f","","null","<div style=""font-size:60px;"">+</div>","null","","","","","","","","","","","","","",""
"","","","","","noisyLetter","20","107549","0.0-3.1-1.1-1.5","665cb148a4fac709b6b9333a","5acd7cb2e9d7a30001c2cc45","665cb1848fe175472efca253","A","S","1","2","f","","","","g","6328.5999999940395","","","0.35","0","false","practice","0","A","g","true","","",""
"","","","","","html-keyboard-response","21","109055","0.0-3.1-1.1-2.5","665cb148a4fac709b6b9333a","5acd7cb2e9d7a30001c2cc45","665cb1848fe175472efca253","A","S","1","2","f","","null","<div style=""width:300px;height:56px;border:0px;font-size:30px;text-align:center"">Correct! This was just noise.</div>","null","","","","","","","","","","","","","",""
"","","","","","html-keyboard-response","22","109612","0.0-3.1-1.1-0.6","665cb148a4fac709b6b9333a","5acd7cb2e9d7a30001c2cc45","665cb1848fe175472efca253","A","S","1","2","f","","null","<div style=""font-size:60px;"">+</div>","null","","","","","","","","","","","","","",""
"","","","","","noisyLetter","23","112816","0.0-3.1-1.1-1.6","665cb148a4fac709b6b9333a","5acd7cb2e9d7a30001c2cc45","665cb1848fe175472efca253","A","S","1","2","f","","","","f","2870.6999999955297","","","0.35","0","false","practice","1","A","f","true","","",""
"","","","","","html-keyboard-response","24","114318","0.0-3.1-1.1-2.6","665cb148a4fac709b6b9333a","5acd7cb2e9d7a30001c2cc45","665cb1848fe175472efca253","A","S","1","2","f","","null","<div style=""width:300px;height:56px;font-size:30px;text-align:center;"">Correct! You detected the letter.</div>","null","","","","","","","","","","","","","",""
"","","","","","html-keyboard-response","25","115033","0.0-3.1-1.1-0.7","665cb148a4fac709b6b9333a","5acd7cb2e9d7a30001c2cc45","665cb1848fe175472efca253","A","S","1","2","f","","null","<div style=""font-size:60px;"">+</div>","null","","","","","","","","","","","","","",""
"","","","","","noisyLetter","26","119582","0.0-3.1-1.1-1.7","665cb148a4fac709b6b9333a","5acd7cb2e9d7a30001c2cc45","665cb1848fe175472efca253","A","S","1","2","f","","","","g","4192.30000000447","","","0.35","0","false","practice","0","A","g","true","","",""
"","","","","","html-keyboard-response","27","121089","0.0-3.1-1.1-2.7","665cb148a4fac709b6b9333a","5acd7cb2e9d7a30001c2cc45","665cb1848fe175472efca253","A","S","1","2","f","","null","<div style=""width:300px;height:56px;border:0px;font-size:30px;text-align:center"">Correct! This was just noise.</div>","null","","","","","","","","","","","","","",""
"","","","","","instructions","28","131135","0.0-4.0","665cb148a4fac709b6b9333a","5acd7cb2e9d7a30001c2cc45","665cb1848fe175472efca253","A","S","1","2","f","[{""page_index"":0,""viewing_time"":6377},{""page_index"":1,""viewing_time"":3666}]","10043","","","","","","","","","","","","","","","",""
"","","","","","html-keyboard-response","29","131822","0.0-5.0-1.0-0.0-0.0","665cb148a4fac709b6b9333a","5acd7cb2e9d7a30001c2cc45","665cb1848fe175472efca253","A","S","1","2","f","","null","<div style=""font-size:60px;"">+</div>","null","","","","","","","","","","","","","",""
"","","","","","noisyLetter","30","142632","0.0-5.0-1.0-0.0-1.0","665cb148a4fac709b6b9333a","5acd7cb2e9d7a30001c2cc45","665cb1848fe175472efca253","A","S","1","2","f","","","","f","7931.39999999851","","","0.35","0","false","practice","1","A","f","true","0.5936507936507937","2740.10000000149",""
"","","","","","html-keyboard-response","31","143351","0.0-5.0-1.0-0.0-0.1","665cb148a4fac709b6b9333a","5acd7cb2e9d7a30001c2cc45","665cb1848fe175472efca253","A","S","1","2","f","","null","<div style=""font-size:60px;"">+</div>","null","","","","","","","","","","","","","",""
"","","","","","noisyLetter","32","152632","0.0-5.0-1.0-0.0-1.1","665cb148a4fac709b6b9333a","5acd7cb2e9d7a30001c2cc45","665cb1848fe175472efca253","A","S","1","2","f","","","","g","6738.5","","","0.35","0","false","practice","0","A","g","true","0.6825396825396826","2374.7000000029802",""
"","","","","","html-keyboard-response","33","153518","0.0-5.0-1.0-0.0-0.2","665cb148a4fac709b6b9333a","5acd7cb2e9d7a30001c2cc45","665cb1848fe175472efca253","A","S","1","2","f","","null","<div style=""font-size:60px;"">+</div>","null","","","","","","","","","","","","","",""
"","","","","","noisyLetter","34","167466","0.0-5.0-1.0-0.0-1.2","665cb148a4fac709b6b9333a","5acd7cb2e9d7a30001c2cc45","665cb1848fe175472efca253","A","S","1","2","f","","","","g","12463.5","","","0.35","0","false","practice","0","A","g","true","0.6158730158730159","1322.3999999985099",""
"","","","","","html-keyboard-response","35","168063","0.0-5.0-1.0-0.0-0.3","665cb148a4fac709b6b9333a","5acd7cb2e9d7a30001c2cc45","665cb1848fe175472efca253","A","S","1","2","f","","null","<div style=""font-size:60px;"">+</div>","null","","","","","","","","","","","","","",""
"","","","","","noisyLetter","36","175332","0.0-5.0-1.0-0.0-1.3","665cb148a4fac709b6b9333a","5acd7cb2e9d7a30001c2cc45","665cb1848fe175472efca253","A","S","1","2","f","","","","f","4988.0999999940395","","","0.35","0","false","practice","1","A","f","true","0.6158730158730159","2107.7000000029802",""
"","","","","","survey-multi-choice","37","185696","0.0-5.0-1.0-1.0","665cb148a4fac709b6b9333a","5acd7cb2e9d7a30001c2cc45","665cb1848fe175472efca253","A","S","1","2","f","","10361","","{""multichoice_confidence"":""4. guessing that there was no letter in the noise.""}","","","","","","","","","","","","","","[0]"
"","","","","","instructions","38","206556","0.0-5.1-0.1-0.1","665cb148a4fac709b6b9333a","5acd7cb2e9d7a30001c2cc45","665cb1848fe175472efca253","A","S","1","2","f","[{""page_index"":0,""viewing_time"":20857}]","20857","","","","","","","","","","","","","","","",""
"","","","","","html-keyboard-response","39","207346","0.0-5.1-1.1-0.1-0.4","665cb148a4fac709b6b9333a","5acd7cb2e9d7a30001c2cc45","665cb1848fe175472efca253","A","S","1","2","f","","null","<div style=""font-size:60px;"">+</div>","null","","","","","","","","","","","","","",""
"","","","","","noisyLetter","40","218882","0.0-5.1-1.1-0.1-1.4","665cb148a4fac709b6b9333a","5acd7cb2e9d7a30001c2cc45","665cb1848fe175472efca253","A","S","1","2","f","","","","g","9297.10000000149","","","0.35","0","false","practice","0","A","g","true","0.6317460317460317","2072.7000000029802",""
"","","","","","html-keyboard-response","41","219699","0.0-5.1-1.1-0.1-0.5","665cb148a4fac709b6b9333a","5acd7cb2e9d7a30001c2cc45","665cb1848fe175472efca253","A","S","1","2","f","","null","<div style=""font-size:60px;"">+</div>","null","","","","","","","","","","","","","",""
"","","","","","noisyLetter","42","223582","0.0-5.1-1.1-0.1-1.5","665cb148a4fac709b6b9333a","5acd7cb2e9d7a30001c2cc45","665cb1848fe175472efca253","A","S","1","2","f","","","","f","2166.7000000029802","","","0.35","0","false","practice","1","A","f","true","0.7619047619047619","1529.8999999985099",""
"","","","","","html-keyboard-response","43","224253","0.0-5.1-1.1-0.1-0.6","665cb148a4fac709b6b9333a","5acd7cb2e9d7a30001c2cc45","665cb1848fe175472efca253","A","S","1","2","f","","null","<div style=""font-size:60px;"">+</div>","null","","","","","","","","","","","","","",""
"","","","","","noisyLetter","44","237465","0.0-5.1-1.1-0.1-1.6","665cb148a4fac709b6b9333a","5acd7cb2e9d7a30001c2cc45","665cb1848fe175472efca253","A","S","1","2","f","","","","g","11105.39999999851","","","0.35","0","false","practice","0","A","g","true","0.4825396825396825","1931.4000000059605",""
"","","","","","html-keyboard-response","45","238142","0.0-5.1-1.1-0.1-0.7","665cb148a4fac709b6b9333a","5acd7cb2e9d7a30001c2cc45","665cb1848fe175472efca253","A","S","1","2","f","","null","<div style=""font-size:60px;"">+</div>","null","","","","","","","","","","","","","",""
"","","","","","noisyLetter","46","241949","0.0-5.1-1.1-0.1-1.7","665cb148a4fac709b6b9333a","5acd7cb2e9d7a30001c2cc45","665cb1848fe175472efca253","A","S","1","2","f","","","","f","2302.39999999851","","","0.35","0","false","practice","1","A","f","true","0.9428571428571428","1328.8999999985099",""
"","","","","","survey-multi-choice","47","249029","0.0-5.1-1.1-1.1","665cb148a4fac709b6b9333a","5acd7cb2e9d7a30001c2cc45","665cb1848fe175472efca253","A","S","1","2","f","","7077","","{""multichoice_confidence"":""2. very confident that there was no letter in the noise.""}","","","","","","","","","","","","","","[0]"
"","","","","","instructions","48","272329","0.0-6.0","665cb148a4fac709b6b9333a","5acd7cb2e9d7a30001c2cc45","665cb1848fe175472efca253","A","S","1","2","f","[{""page_index"":0,""viewing_time"":13173},{""page_index"":1,""viewing_time"":10124}]","23298","","","","","","","","","","","","","","","",""
"","","","","","html-keyboard-response","49","272958","0.0-7.0-0.0","665cb148a4fac709b6b9333a","5acd7cb2e9d7a30001c2cc45","665cb1848fe175472efca253","A","S","1","2","f","","null","<div style=""font-size:60px;"">+</div>","null","","","","","","","","","","","","","",""
"","","","","","noisyLetter","50","284165","0.0-7.0-1.0","665cb148a4fac709b6b9333a","5acd7cb2e9d7a30001c2cc45","665cb1848fe175472efca253","A","S","1","2","f","","","","g","9290.89999999851","","","0.3","0.1","false","test1","0","A","g","true","0.5095238095238095","1592.6000000014901",""
"","","","","","html-keyboard-response","51","285174","0.0-7.0-2.0","665cb148a4fac709b6b9333a","5acd7cb2e9d7a30001c2cc45","665cb1848fe175472efca253","A","S","1","2","f","","null","<div style=""width:150px;height:56px;font-size:30px;text-align:center;"">correct!</div>","null","","","","","","","","","","","","","",""
"","","","","","html-keyboard-response","52","286103","0.0-7.0-0.1","665cb148a4fac709b6b9333a","5acd7cb2e9d7a30001c2cc45","665cb1848fe175472efca253","A","S","1","2","f","","null","<div style=""font-size:60px;"">+</div>","null","","","","","","","","","","","","","",""
"","","","","","noisyLetter","53","292782","0.0-7.0-1.1","665cb148a4fac709b6b9333a","5acd7cb2e9d7a30001c2cc45","665cb1848fe175472efca253","A","S","1","2","f","","","","f","4911","","","0.3","0.1","false","test1","1","A","f","true","0.7142857142857143","1587.6999999955297",""
"","","","","","html-keyboard-response","54","293783","0.0-7.0-2.1","665cb148a4fac709b6b9333a","5acd7cb2e9d7a30001c2cc45","665cb1848fe175472efca253","A","S","1","2","f","","null","<div style=""width:150px;height:56px;font-size:30px;text-align:center;"">correct!</div>","null","","","","","","","","","","","","","",""
"","","","","","html-keyboard-response","55","294423","0.0-7.0-0.2","665cb148a4fac709b6b9333a","5acd7cb2e9d7a30001c2cc45","665cb1848fe175472efca253","A","S","1","2","f","","null","<div style=""font-size:60px;"">+</div>","null","","","","","","","","","","","","","",""
"","","","","","noisyLetter","56","300965","0.0-7.0-1.2","665cb148a4fac709b6b9333a","5acd7cb2e9d7a30001c2cc45","665cb1848fe175472efca253","A","S","1","2","f","","","","g","5034.19999999553","","","0.3","0.35","false","test1","1","A","f","false","0.6714285714285715","1316.8000000044703",""
"","","","","","html-keyboard-response","57","303466","0.0-7.0-2.2","665cb148a4fac709b6b9333a","5acd7cb2e9d7a30001c2cc45","665cb1848fe175472efca253","A","S","1","2","f","","null","<div style=""width:150px;height:56px;border:0px;font-size:30px;text-align:center"">wrong.</div>","null","","","","","","","","","","","","","",""
"","","","","","html-keyboard-response","58","304261","0.0-7.0-0.3","665cb148a4fac709b6b9333a","5acd7cb2e9d7a30001c2cc45","665cb1848fe175472efca253","A","S","1","2","f","","null","<div style=""font-size:60px;"">+</div>","null","","","","","","","","","","","","","",""
"","","","","","noisyLetter","59","311748","0.0-7.0-1.3","665cb148a4fac709b6b9333a","5acd7cb2e9d7a30001c2cc45","665cb1848fe175472efca253","A","S","1","2","f","","","","g","5850.39999999851","","","0.3","0.35","false","test1","0","A","g","true","0.5793650793650793","1470.2000000029802",""
"","","","","","html-keyboard-response","60","312754","0.0-7.0-2.3","665cb148a4fac709b6b9333a","5acd7cb2e9d7a30001c2cc45","665cb1848fe175472efca253","A","S","1","2","f","","null","<div style=""width:150px;height:56px;font-size:30px;text-align:center;"">correct!</div>","null","","","","","","","","","","","","","",""
"","","","","","html-keyboard-response","61","313491","0.0-7.0-0.4","665cb148a4fac709b6b9333a","5acd7cb2e9d7a30001c2cc45","665cb1848fe175472efca253","A","S","1","2","f","","null","<div style=""font-size:60px;"">+</div>","null","","","","","","","","","","","","","",""
"","","","","","noisyLetter","62","317698","0.0-7.0-1.4","665cb148a4fac709b6b9333a","5acd7cb2e9d7a30001c2cc45","665cb1848fe175472efca253","A","S","1","2","f","","","","f","2700.89999999851","","","0.3","0.35","false","test1","1","A","f","true","0.5793650793650793","1309.7999999970198",""
"","","","","","html-keyboard-response","63","318700","0.0-7.0-2.4","665cb148a4fac709b6b9333a","5acd7cb2e9d7a30001c2cc45","665cb1848fe175472efca253","A","S","1","2","f","","null","<div style=""width:150px;height:56px;font-size:30px;text-align:center;"">correct!</div>","null","","","","","","","","","","","","","",""
"","","","","","html-keyboard-response","64","319283","0.0-7.0-0.5","665cb148a4fac709b6b9333a","5acd7cb2e9d7a30001c2cc45","665cb1848fe175472efca253","A","S","1","2","f","","null","<div style=""font-size:60px;"">+</div>","null","","","","","","","","","","","","","",""
"","","","","","noisyLetter","65","324965","0.0-7.0-1.5","665cb148a4fac709b6b9333a","5acd7cb2e9d7a30001c2cc45","665cb1848fe175472efca253","A","S","1","2","f","","","","g","4316.89999999851","","","0.3","0.1","false","test1","1","A","f","false","0.5587301587301587","1222.3999999985099",""
"","","","","","html-keyboard-response","66","327469","0.0-7.0-2.5","665cb148a4fac709b6b9333a","5acd7cb2e9d7a30001c2cc45","665cb1848fe175472efca253","A","S","1","2","f","","null","<div style=""width:150px;height:56px;border:0px;font-size:30px;text-align:center"">wrong.</div>","null","","","","","","","","","","","","","",""
"","","","","","html-keyboard-response","67","328139","0.0-7.0-0.6","665cb148a4fac709b6b9333a","5acd7cb2e9d7a30001c2cc45","665cb1848fe175472efca253","A","S","1","2","f","","null","<div style=""font-size:60px;"">+</div>","null","","","","","","","","","","","","","",""
"","","","","","noisyLetter","68","336948","0.0-7.0-1.6","665cb148a4fac709b6b9333a","5acd7cb2e9d7a30001c2cc45","665cb1848fe175472efca253","A","S","1","2","f","","","","g","7237.79999999702","","","0.3","0.1","false","test1","0","A","g","true","0.526984126984127","1381.2000000029802",""
"","","","","","html-keyboard-response","69","337954","0.0-7.0-2.6","665cb148a4fac709b6b9333a","5acd7cb2e9d7a30001c2cc45","665cb1848fe175472efca253","A","S","1","2","f","","null","<div style=""width:150px;height:56px;font-size:30px;text-align:center;"">correct!</div>","null","","","","","","","","","","","","","",""
"","","","","","html-keyboard-response","70","338461","0.0-7.0-0.7","665cb148a4fac709b6b9333a","5acd7cb2e9d7a30001c2cc45","665cb1848fe175472efca253","A","S","1","2","f","","null","<div style=""font-size:60px;"">+</div>","null","","","","","","","","","","","","","",""
"","","","","","noisyLetter","71","344732","0.0-7.0-1.7","665cb148a4fac709b6b9333a","5acd7cb2e9d7a30001c2cc45","665cb1848fe175472efca253","A","S","1","2","f","","","","f","4953","","","0.3","0.35","false","test1","0","A","g","false","0.49523809523809526","1177",""
"","","","","","html-keyboard-response","72","347237","0.0-7.0-2.7","665cb148a4fac709b6b9333a","5acd7cb2e9d7a30001c2cc45","665cb1848fe175472efca253","A","S","1","2","f","","null","<div style=""width:150px;height:56px;border:0px;font-size:30px;text-align:center"">wrong.</div>","null","","","","","","","","","","","","","",""
"","","","","","html-keyboard-response","73","347794","0.0-7.0-0.8","665cb148a4fac709b6b9333a","5acd7cb2e9d7a30001c2cc45","665cb1848fe175472efca253","A","S","1","2","f","","null","<div style=""font-size:60px;"">+</div>","null","","","","","","","","","","","","","",""
"","","","","","noisyLetter","74","351065","0.0-7.0-1.8","665cb148a4fac709b6b9333a","5acd7cb2e9d7a30001c2cc45","665cb1848fe175472efca253","A","S","1","2","f","","","","f","1792.6999999955297","","","0.3","0.35","false","test1","1","A","f","true","0.6428571428571428","1182.3000000044703",""
"","","","","","html-keyboard-response","75","352069","0.0-7.0-2.8","665cb148a4fac709b6b9333a","5acd7cb2e9d7a30001c2cc45","665cb1848fe175472efca253","A","S","1","2","f","","null","<div style=""width:150px;height:56px;font-size:30px;text-align:center;"">correct!</div>","null","","","","","","","","","","","","","",""
"","","","","","html-keyboard-response","76","352782","0.0-7.0-0.9","665cb148a4fac709b6b9333a","5acd7cb2e9d7a30001c2cc45","665cb1848fe175472efca253","A","S","1","2","f","","null","<div style=""font-size:60px;"">+</div>","null","","","","","","","","","","","","","",""
"","","","","","noisyLetter","77","360415","0.0-7.0-1.9","665cb148a4fac709b6b9333a","5acd7cb2e9d7a30001c2cc45","665cb1848fe175472efca253","A","S","1","2","f","","","","g","5989.39999999851","","","0.3","0.1","false","test1","1","A","f","false","0.5158730158730158","1598.7000000029802",""
"","","","","","html-keyboard-response","78","362921","0.0-7.0-2.9","665cb148a4fac709b6b9333a","5acd7cb2e9d7a30001c2cc45","665cb1848fe175472efca253","A","S","1","2","f","","null","<div style=""width:150px;height:56px;border:0px;font-size:30px;text-align:center"">wrong.</div>","null","","","","","","","","","","","","","",""
"","","","","","html-keyboard-response","79","363563","0.0-7.0-0.10","665cb148a4fac709b6b9333a","5acd7cb2e9d7a30001c2cc45","665cb1848fe175472efca253","A","S","1","2","f","","null","<div style=""font-size:60px;"">+</div>","null","","","","","","","","","","","","","",""
"","","","","","noisyLetter","80","371898","0.0-7.0-1.10","665cb148a4fac709b6b9333a","5acd7cb2e9d7a30001c2cc45","665cb1848fe175472efca253","A","S","1","2","f","","","","g","6775","","","0.3","0.35","false","test1","0","A","g","true","0.5079365079365079","1387.1000000014901",""
"","","","","","html-keyboard-response","81","372904","0.0-7.0-2.10","665cb148a4fac709b6b9333a","5acd7cb2e9d7a30001c2cc45","665cb1848fe175472efca253","A","S","1","2","f","","null","<div style=""width:150px;height:56px;font-size:30px;text-align:center;"">correct!</div>","null","","","","","","","","","","","","","",""
"","","","","","html-keyboard-response","82","373548","0.0-7.0-0.11","665cb148a4fac709b6b9333a","5acd7cb2e9d7a30001c2cc45","665cb1848fe175472efca253","A","S","1","2","f","","null","<div style=""font-size:60px;"">+</div>","null","","","","","","","","","","","","","",""
"","","","","","noisyLetter","83","384165","0.0-7.0-1.11","665cb148a4fac709b6b9333a","5acd7cb2e9d7a30001c2cc45","665cb1848fe175472efca253","A","S","1","2","f","","","","g","8934.90000000596","","","0.3","0.1","false","test1","0","A","g","true","0.5047619047619047","1490.2999999970198",""
"","","","","","html-keyboard-response","84","385166","0.0-7.0-2.11","665cb148a4fac709b6b9333a","5acd7cb2e9d7a30001c2cc45","665cb1848fe175472efca253","A","S","1","2","f","","null","<div style=""width:150px;height:56px;font-size:30px;text-align:center;"">correct!</div>","null","","","","","","","","","","","","","",""
"","","","","","html-keyboard-response","85","385803","0.0-7.0-0.12","665cb148a4fac709b6b9333a","5acd7cb2e9d7a30001c2cc45","665cb1848fe175472efca253","A","S","1","2","f","","null","<div style=""font-size:60px;"">+</div>","null","","","","","","","","","","","","","",""
"","","","","","noisyLetter","86","394548","0.0-7.0-1.12","665cb148a4fac709b6b9333a","5acd7cb2e9d7a30001c2cc45","665cb1848fe175472efca253","A","S","1","2","f","","","","g","7328","","","0.3","0.1","false","test1","1","A","f","false","0.5285714285714286","1278.6999999955297",""
"","","","","","html-keyboard-response","87","397054","0.0-7.0-2.12","665cb148a4fac709b6b9333a","5acd7cb2e9d7a30001c2cc45","665cb1848fe175472efca253","A","S","1","2","f","","null","<div style=""width:150px;height:56px;border:0px;font-size:30px;text-align:center"">wrong.</div>","null","","","","","","","","","","","","","",""
"","","","","","html-keyboard-response","88","397845","0.0-7.0-0.13","665cb148a4fac709b6b9333a","5acd7cb2e9d7a30001c2cc45","665cb1848fe175472efca253","A","S","1","2","f","","null","<div style=""font-size:60px;"">+</div>","null","","","","","","","","","","","","","",""
"","","","","","noisyLetter","89","408581","0.0-7.0-1.13","665cb148a4fac709b6b9333a","5acd7cb2e9d7a30001c2cc45","665cb1848fe175472efca253","A","S","1","2","f","","","","g","9484.39999999851","","","0.3","0.1","false","test1","0","A","g","true","0.5714285714285714","1097.6000000014901",""
"","","","","","html-keyboard-response","90","409587","0.0-7.0-2.13","665cb148a4fac709b6b9333a","5acd7cb2e9d7a30001c2cc45","665cb1848fe175472efca253","A","S","1","2","f","","null","<div style=""width:150px;height:56px;font-size:30px;text-align:center;"">correct!</div>","null","","","","","","","","","","","","","",""
"","","","","","html-keyboard-response","91","410312","0.0-7.0-0.14","665cb148a4fac709b6b9333a","5acd7cb2e9d7a30001c2cc45","665cb1848fe175472efca253","A","S","1","2","f","","null","<div style=""font-size:60px;"">+</div>","null","","","","","","","","","","","","","",""
"","","","","","noisyLetter","92","418248","0.0-7.0-1.14","665cb148a4fac709b6b9333a","5acd7cb2e9d7a30001c2cc45","665cb1848fe175472efca253","A","S","1","2","f","","","","g","6724.5999999940395","","","0.3","0.35","false","test1","0","A","g","true","0.5825396825396825","1021.9000000059605",""
"","","","","","html-keyboard-response","93","419254","0.0-7.0-2.14","665cb148a4fac709b6b9333a","5acd7cb2e9d7a30001c2cc45","665cb1848fe175472efca253","A","S","1","2","f","","null","<div style=""width:150px;height:56px;font-size:30px;text-align:center;"">correct!</div>","null","","","","","","","","","","","","","",""
"","","","","","html-keyboard-response","94","420024","0.0-7.0-0.15","665cb148a4fac709b6b9333a","5acd7cb2e9d7a30001c2cc45","665cb1848fe175472efca253","A","S","1","2","f","","null","<div style=""font-size:60px;"">+</div>","null","","","","","","","","","","","","","",""
"","","","","","noisyLetter","95","427765","0.0-7.0-1.15","665cb148a4fac709b6b9333a","5acd7cb2e9d7a30001c2cc45","665cb1848fe175472efca253","A","S","1","2","f","","","","f","6242.29999999702","","","0.3","0.35","false","test1","1","A","f","true","0.4206349206349206","1303.3999999985099",""
"","","","","","html-keyboard-response","96","428772","0.0-7.0-2.15","665cb148a4fac709b6b9333a","5acd7cb2e9d7a30001c2cc45","665cb1848fe175472efca253","A","S","1","2","f","","null","<div style=""width:150px;height:56px;font-size:30px;text-align:center;"">correct!</div>","null","","","","","","","","","","","","","",""
"","","","","","instructions","97","435886","0.0-8.0","665cb148a4fac709b6b9333a","5acd7cb2e9d7a30001c2cc45","665cb1848fe175472efca253","A","S","1","2","f","[{""page_index"":0,""viewing_time"":7112}]","7112","","","","","","","","","","","","","","","",""
"","","","","","html-keyboard-response","98","436394","0.0-9.0-0.0","665cb148a4fac709b6b9333a","5acd7cb2e9d7a30001c2cc45","665cb1848fe175472efca253","A","S","1","2","f","","null","<div style=""font-size:60px;"">+</div>","null","","","","","","","","","","","","","",""
"","","","","","noisyLetter","99","443865","0.0-9.0-1.0","665cb148a4fac709b6b9333a","5acd7cb2e9d7a30001c2cc45","665cb1848fe175472efca253","A","S","1","2","f","","","","g","5921.70000000298","","","0.3","0.1","false","test1","0","A","g","true","0.5079365079365079","1374.3999999985099",""
"","","","","","html-keyboard-response","100","444867","0.0-9.0-2.0","665cb148a4fac709b6b9333a","5acd7cb2e9d7a30001c2cc45","665cb1848fe175472efca253","A","S","1","2","f","","null","<div style=""width:150px;height:56px;font-size:30px;text-align:center;"">correct!</div>","null","","","","","","","","","","","","","",""
"","","","","","html-keyboard-response","101","445534","0.0-9.0-0.1","665cb148a4fac709b6b9333a","5acd7cb2e9d7a30001c2cc45","665cb1848fe175472efca253","A","S","1","2","f","","null","<div style=""font-size:60px;"">+</div>","null","","","","","","","","","","","","","",""
"","","","","","noisyLetter","102","449548","0.0-9.0-1.1","665cb148a4fac709b6b9333a","5acd7cb2e9d7a30001c2cc45","665cb1848fe175472efca253","A","S","1","2","f","","","","f","2701.10000000149","","","0.3","0.1","false","test1","1","A","f","true","0.6190476190476191","1006.5",""
"","","","","","html-keyboard-response","103","450550","0.0-9.0-2.1","665cb148a4fac709b6b9333a","5acd7cb2e9d7a30001c2cc45","665cb1848fe175472efca253","A","S","1","2","f","","null","<div style=""width:150px;height:56px;font-size:30px;text-align:center;"">correct!</div>","null","","","","","","","","","","","","","",""
"","","","","","html-keyboard-response","104","451520","0.0-9.0-0.2","665cb148a4fac709b6b9333a","5acd7cb2e9d7a30001c2cc45","665cb1848fe175472efca253","A","S","1","2","f","","null","<div style=""font-size:60px;"">+</div>","null","","","","","","","","","","","","","",""
"","","","","","noisyLetter","105","460065","0.0-9.0-1.2","665cb148a4fac709b6b9333a","5acd7cb2e9d7a30001c2cc45","665cb1848fe175472efca253","A","S","1","2","f","","","","g","7032.20000000298","","","0.3","0.35","false","test1","0","A","g","true","0.3825396825396825","1315.5",""
"","","","","","html-keyboard-response","106","461066","0.0-9.0-2.2","665cb148a4fac709b6b9333a","5acd7cb2e9d7a30001c2cc45","665cb1848fe175472efca253","A","S","1","2","f","","null","<div style=""width:150px;height:56px;font-size:30px;text-align:center;"">correct!</div>","null","","","","","","","","","","","","","",""
"","","","","","html-keyboard-response","107","461728","0.0-9.0-0.3","665cb148a4fac709b6b9333a","5acd7cb2e9d7a30001c2cc45","665cb1848fe175472efca253","A","S","1","2","f","","null","<div style=""font-size:60px;"">+</div>","null","","","","","","","","","","","","","",""
"","","","","","noisyLetter","108","469481","0.0-9.0-1.3","665cb148a4fac709b6b9333a","5acd7cb2e9d7a30001c2cc45","665cb1848fe175472efca253","A","S","1","2","f","","","","g","6639.80000000447","","","0.3","0.35","false","test1","1","A","f","false","0.42539682539682544","917.5999999940395",""
"","","","","","html-keyboard-response","109","471987","0.0-9.0-2.3","665cb148a4fac709b6b9333a","5acd7cb2e9d7a30001c2cc45","665cb1848fe175472efca253","A","S","1","2","f","","null","<div style=""width:150px;height:56px;border:0px;font-size:30px;text-align:center"">wrong.</div>","null","","","","","","","","","","","","","",""
"","","","","","html-keyboard-response","110","472510","0.0-9.0-0.4","665cb148a4fac709b6b9333a","5acd7cb2e9d7a30001c2cc45","665cb1848fe175472efca253","A","S","1","2","f","","null","<div style=""font-size:60px;"">+</div>","null","","","","","","","","","","","","","",""
"","","","","","noisyLetter","111","479515","0.0-9.0-1.4","665cb148a4fac709b6b9333a","5acd7cb2e9d7a30001c2cc45","665cb1848fe175472efca253","A","S","1","2","f","","","","g","5873.29999999702","","","0.3","0.1","false","test1","1","A","f","false","0.43492063492063493","956.9000000059605",""
"","","","","","html-keyboard-response","112","482019","0.0-9.0-2.4","665cb148a4fac709b6b9333a","5acd7cb2e9d7a30001c2cc45","665cb1848fe175472efca253","A","S","1","2","f","","null","<div style=""width:150px;height:56px;border:0px;font-size:30px;text-align:center"">wrong.</div>","null","","","","","","","","","","","","","",""
"","","","","","html-keyboard-response","113","482549","0.0-9.0-0.5","665cb148a4fac709b6b9333a","5acd7cb2e9d7a30001c2cc45","665cb1848fe175472efca253","A","S","1","2","f","","null","<div style=""font-size:60px;"">+</div>","null","","","","","","","","","","","","","",""
"","","","","","noisyLetter","114","492098","0.0-9.0-1.5","665cb148a4fac709b6b9333a","5acd7cb2e9d7a30001c2cc45","665cb1848fe175472efca253","A","S","1","2","f","","","","g","8431.39999999851","","","0.3","0.1","false","test1","0","A","g","true","0.44126984126984126","973.6000000014901",""
"","","","","","html-keyboard-response","115","493103","0.0-9.0-2.5","665cb148a4fac709b6b9333a","5acd7cb2e9d7a30001c2cc45","665cb1848fe175472efca253","A","S","1","2","f","","null","<div style=""width:150px;height:56px;font-size:30px;text-align:center;"">correct!</div>","null","","","","","","","","","","","","","",""
"","","","","","html-keyboard-response","116","493733","0.0-9.0-0.6","665cb148a4fac709b6b9333a","5acd7cb2e9d7a30001c2cc45","665cb1848fe175472efca253","A","S","1","2","f","","null","<div style=""font-size:60px;"">+</div>","null","","","","","","","","","","","","","",""
"","","","","","noisyLetter","117","501281","0.0-9.0-1.6","665cb148a4fac709b6b9333a","5acd7cb2e9d7a30001c2cc45","665cb1848fe175472efca253","A","S","1","2","f","","","","g","6516.70000000298","","","0.3","0.35","false","test1","0","A","g","true","0.4984126984126984","885.2999999970198",""
"","","","","","html-keyboard-response","118","502287","0.0-9.0-2.6","665cb148a4fac709b6b9333a","5acd7cb2e9d7a30001c2cc45","665cb1848fe175472efca253","A","S","1","2","f","","null","<div style=""width:150px;height:56px;font-size:30px;text-align:center;"">correct!</div>","null","","","","","","","","","","","","","",""
"","","","","","html-keyboard-response","119","502837","0.0-9.0-0.7","665cb148a4fac709b6b9333a","5acd7cb2e9d7a30001c2cc45","665cb1848fe175472efca253","A","S","1","2","f","","null","<div style=""font-size:60px;"">+</div>","null","","","","","","","","","","","","","",""
"","","","","","noisyLetter","120","510048","0.0-9.0-1.7","665cb148a4fac709b6b9333a","5acd7cb2e9d7a30001c2cc45","665cb1848fe175472efca253","A","S","1","2","f","","","","f","6162.89999999851","","","0.3","0.35","false","test1","1","A","f","true","0.3936507936507937","866.1000000014901",""
"","","","","","html-keyboard-response","121","511054","0.0-9.0-2.7","665cb148a4fac709b6b9333a","5acd7cb2e9d7a30001c2cc45","665cb1848fe175472efca253","A","S","1","2","f","","null","<div style=""width:150px;height:56px;font-size:30px;text-align:center;"">correct!</div>","null","","","","","","","","","","","","","",""
"","","","","","html-keyboard-response","122","511884","0.0-9.0-0.8","665cb148a4fac709b6b9333a","5acd7cb2e9d7a30001c2cc45","665cb1848fe175472efca253","A","S","1","2","f","","null","<div style=""font-size:60px;"">+</div>","null","","","","","","","","","","","","","",""
"","","","","","noisyLetter","123","518165","0.0-9.0-1.8","665cb148a4fac709b6b9333a","5acd7cb2e9d7a30001c2cc45","665cb1848fe175472efca253","A","S","1","2","f","","","","g","5148","","","0.3","0.1","false","test1","0","A","g","true","0.4126984126984127","965.1999999955297",""
"","","","","","html-keyboard-response","124","519166","0.0-9.0-2.8","665cb148a4fac709b6b9333a","5acd7cb2e9d7a30001c2cc45","665cb1848fe175472efca253","A","S","1","2","f","","null","<div style=""width:150px;height:56px;font-size:30px;text-align:center;"">correct!</div>","null","","","","","","","","","","","","","",""
"","","","","","html-keyboard-response","125","519852","0.0-9.0-0.9","665cb148a4fac709b6b9333a","5acd7cb2e9d7a30001c2cc45","665cb1848fe175472efca253","A","S","1","2","f","","null","<div style=""font-size:60px;"">+</div>","null","","","","","","","","","","","","","",""
"","","","","","noisyLetter","126","525265","0.0-9.0-1.9","665cb148a4fac709b6b9333a","5acd7cb2e9d7a30001c2cc45","665cb1848fe175472efca253","A","S","1","2","f","","","","f","4112.79999999702","","","0.3","0.1","false","test1","1","A","f","true","0.46190476190476193","1136.3000000044703",""
"","","","","","html-keyboard-response","127","526270","0.0-9.0-2.9","665cb148a4fac709b6b9333a","5acd7cb2e9d7a30001c2cc45","665cb1848fe175472efca253","A","S","1","2","f","","null","<div style=""width:150px;height:56px;font-size:30px;text-align:center;"">correct!</div>","null","","","","","","","","","","","","","",""
"","","","","","html-keyboard-response","128","527075","0.0-9.0-0.10","665cb148a4fac709b6b9333a","5acd7cb2e9d7a30001c2cc45","665cb1848fe175472efca253","A","S","1","2","f","","null","<div style=""font-size:60px;"">+</div>","null","","","","","","","","","","","","","",""
"","","","","","noisyLetter","129","532298","0.0-9.0-1.10","665cb148a4fac709b6b9333a","5acd7cb2e9d7a30001c2cc45","665cb1848fe175472efca253","A","S","1","2","f","","","","g","4129.5","","","0.3","0.35","false","test1","0","A","g","true","0.44126984126984126","907.8000000044703",""
"","","","","","html-keyboard-response","130","533304","0.0-9.0-2.10","665cb148a4fac709b6b9333a","5acd7cb2e9d7a30001c2cc45","665cb1848fe175472efca253","A","S","1","2","f","","null","<div style=""width:150px;height:56px;font-size:30px;text-align:center;"">correct!</div>","null","","","","","","","","","","","","","",""
"","","","","","html-keyboard-response","131","534152","0.0-9.0-0.11","665cb148a4fac709b6b9333a","5acd7cb2e9d7a30001c2cc45","665cb1848fe175472efca253","A","S","1","2","f","","null","<div style=""font-size:60px;"">+</div>","null","","","","","","","","","","","","","",""
"","","","","","noisyLetter","132","537898","0.0-9.0-1.11","665cb148a4fac709b6b9333a","5acd7cb2e9d7a30001c2cc45","665cb1848fe175472efca253","A","S","1","2","f","","","","f","2540.7999999970198","","","0.3","0.35","false","test1","1","A","f","true","0.5761904761904761","1004.9000000059605",""
"","","","","","html-keyboard-response","133","538904","0.0-9.0-2.11","665cb148a4fac709b6b9333a","5acd7cb2e9d7a30001c2cc45","665cb1848fe175472efca253","A","S","1","2","f","","null","<div style=""width:150px;height:56px;font-size:30px;text-align:center;"">correct!</div>","null","","","","","","","","","","","","","",""
"","","","","","html-keyboard-response","134","539742","0.0-9.0-0.12","665cb148a4fac709b6b9333a","5acd7cb2e9d7a30001c2cc45","665cb1848fe175472efca253","A","S","1","2","f","","null","<div style=""font-size:60px;"">+</div>","null","","","","","","","","","","","","","",""
"","","","","","noisyLetter","135","546481","0.0-9.0-1.12","665cb148a4fac709b6b9333a","5acd7cb2e9d7a30001c2cc45","665cb1848fe175472efca253","A","S","1","2","f","","","","g","5761","","","0.3","0.1","false","test1","1","A","f","false","0.5285714285714286","802.1000000014901",""
"","","","","","html-keyboard-response","136","548987","0.0-9.0-2.12","665cb148a4fac709b6b9333a","5acd7cb2e9d7a30001c2cc45","665cb1848fe175472efca253","A","S","1","2","f","","null","<div style=""width:150px;height:56px;border:0px;font-size:30px;text-align:center"">wrong.</div>","null","","","","","","","","","","","","","",""
"","","","","","html-keyboard-response","137","549733","0.0-9.0-0.13","665cb148a4fac709b6b9333a","5acd7cb2e9d7a30001c2cc45","665cb1848fe175472efca253","A","S","1","2","f","","null","<div style=""font-size:60px;"">+</div>","null","","","","","","","","","","","","","",""
"","","","","","noisyLetter","138","555731","0.0-9.0-1.13","665cb148a4fac709b6b9333a","5acd7cb2e9d7a30001c2cc45","665cb1848fe175472efca253","A","S","1","2","f","","","","g","4842.10000000149","","","0.3","0.35","false","test1","1","A","f","false","0.3412698412698413","983.8999999985099",""
"","","","","","html-keyboard-response","139","558234","0.0-9.0-2.13","665cb148a4fac709b6b9333a","5acd7cb2e9d7a30001c2cc45","665cb1848fe175472efca253","A","S","1","2","f","","null","<div style=""width:150px;height:56px;border:0px;font-size:30px;text-align:center"">wrong.</div>","null","","","","","","","","","","","","","",""
"","","","","","html-keyboard-response","140","558920","0.0-9.0-0.14","665cb148a4fac709b6b9333a","5acd7cb2e9d7a30001c2cc45","665cb1848fe175472efca253","A","S","1","2","f","","null","<div style=""font-size:60px;"">+</div>","null","","","","","","","","","","","","","",""
"","","","","","noisyLetter","141","564731","0.0-9.0-1.14","665cb148a4fac709b6b9333a","5acd7cb2e9d7a30001c2cc45","665cb1848fe175472efca253","A","S","1","2","f","","","","g","4719.79999999702","","","0.3","0.35","false","test1","0","A","g","true","0.40793650793650793","918.3000000044703",""
"","","","","","html-keyboard-response","142","565735","0.0-9.0-2.14","665cb148a4fac709b6b9333a","5acd7cb2e9d7a30001c2cc45","665cb1848fe175472efca253","A","S","1","2","f","","null","<div style=""width:150px;height:56px;font-size:30px;text-align:center;"">correct!</div>","null","","","","","","","","","","","","","",""
"","","","","","html-keyboard-response","143","566521","0.0-9.0-0.15","665cb148a4fac709b6b9333a","5acd7cb2e9d7a30001c2cc45","665cb1848fe175472efca253","A","S","1","2","f","","null","<div style=""font-size:60px;"">+</div>","null","","","","","","","","","","","","","",""
"","","","","","noisyLetter","144","571131","0.0-9.0-1.15","665cb148a4fac709b6b9333a","5acd7cb2e9d7a30001c2cc45","665cb1848fe175472efca253","A","S","1","2","f","","","","f","3440","","","0.3","0.1","false","test1","0","A","g","false","0.4555555555555556","1013.2000000029802",""
"","","","","","html-keyboard-response","145","573638","0.0-9.0-2.15","665cb148a4fac709b6b9333a","5acd7cb2e9d7a30001c2cc45","665cb1848fe175472efca253","A","S","1","2","f","","null","<div style=""width:150px;height:56px;border:0px;font-size:30px;text-align:center"">wrong.</div>","null","","","","","","","","","","","","","",""
"","","","","","instructions","146","588800","0.0-10.0","665cb148a4fac709b6b9333a","5acd7cb2e9d7a30001c2cc45","665cb1848fe175472efca253","A","S","1","2","f","[{""page_index"":0,""viewing_time"":3089},{""page_index"":1,""viewing_time"":10056},{""page_index"":2,""viewing_time"":2015}]","15160","","","","","","","","","","","","","","","",""
"","","","","","html-keyboard-response","147","589432","0.0-11.0-1.0-0.0","665cb148a4fac709b6b9333a","5acd7cb2e9d7a30001c2cc45","665cb1848fe175472efca253","A","S","1","2","f","","null","<div style=""font-size:60px;"">+</div>","null","","","","","","","","","","","","","",""
"","","","","","noisyLetter","148","592181","0.0-11.0-1.0-1.0","665cb148a4fac709b6b9333a","5acd7cb2e9d7a30001c2cc45","665cb1848fe175472efca253","A","S","1","2","f","","","","f","2400.60000000149","","","0.35","0","false","practice","1","S","f","true","","",""
"","","","","","html-keyboard-response","149","593683","0.0-11.0-1.0-2.0","665cb148a4fac709b6b9333a","5acd7cb2e9d7a30001c2cc45","665cb1848fe175472efca253","A","S","1","2","f","","null","<div style=""width:300px;height:56px;font-size:30px;text-align:center;"">Correct! You detected the letter.</div>","null","","","","","","","","","","","","","",""
"","","","","","html-keyboard-response","150","594352","0.0-11.0-1.0-0.1","665cb148a4fac709b6b9333a","5acd7cb2e9d7a30001c2cc45","665cb1848fe175472efca253","A","S","1","2","f","","null","<div style=""font-size:60px;"">+</div>","null","","","","","","","","","","","","","",""
"","","","","","noisyLetter","151","598114","0.0-11.0-1.0-1.1","665cb148a4fac709b6b9333a","5acd7cb2e9d7a30001c2cc45","665cb1848fe175472efca253","A","S","1","2","f","","","","g","3400.89999999851","","","0.35","0","false","practice","0","S","g","true","","",""
"","","","","","html-keyboard-response","152","599621","0.0-11.0-1.0-2.1","665cb148a4fac709b6b9333a","5acd7cb2e9d7a30001c2cc45","665cb1848fe175472efca253","A","S","1","2","f","","null","<div style=""width:300px;height:56px;border:0px;font-size:30px;text-align:center"">Correct! This was just noise.</div>","null","","","","","","","","","","","","","",""
"","","","","","html-keyboard-response","153","600202","0.0-11.0-1.0-0.2","665cb148a4fac709b6b9333a","5acd7cb2e9d7a30001c2cc45","665cb1848fe175472efca253","A","S","1","2","f","","null","<div style=""font-size:60px;"">+</div>","null","","","","","","","","","","","","","",""
"","","","","","noisyLetter","154","606413","0.0-11.0-1.0-1.2","665cb148a4fac709b6b9333a","5acd7cb2e9d7a30001c2cc45","665cb1848fe175472efca253","A","S","1","2","f","","","","g","5862.69999999553","","","0.35","0","false","practice","0","S","g","true","","",""
"","","","","","html-keyboard-response","155","607919","0.0-11.0-1.0-2.2","665cb148a4fac709b6b9333a","5acd7cb2e9d7a30001c2cc45","665cb1848fe175472efca253","A","S","1","2","f","","null","<div style=""width:300px;height:56px;border:0px;font-size:30px;text-align:center"">Correct! This was just noise.</div>","null","","","","","","","","","","","","","",""
"","","","","","html-keyboard-response","156","608430","0.0-11.0-1.0-0.3","665cb148a4fac709b6b9333a","5acd7cb2e9d7a30001c2cc45","665cb1848fe175472efca253","A","S","1","2","f","","null","<div style=""font-size:60px;"">+</div>","null","","","","","","","","","","","","","",""
"","","","","","noisyLetter","157","610447","0.0-11.0-1.0-1.3","665cb148a4fac709b6b9333a","5acd7cb2e9d7a30001c2cc45","665cb1848fe175472efca253","A","S","1","2","f","","","","f","1633.2999999970198","","","0.35","0","false","practice","1","S","f","true","","",""
"","","","","","html-keyboard-response","158","611950","0.0-11.0-1.0-2.3","665cb148a4fac709b6b9333a","5acd7cb2e9d7a30001c2cc45","665cb1848fe175472efca253","A","S","1","2","f","","null","<div style=""width:300px;height:56px;font-size:30px;text-align:center;"">Correct! You detected the letter.</div>","null","","","","","","","","","","","","","",""
"","","","","","instructions","159","615688","0.0-12.0","665cb148a4fac709b6b9333a","5acd7cb2e9d7a30001c2cc45","665cb1848fe175472efca253","A","S","1","2","f","[{""page_index"":0,""viewing_time"":3736}]","3736","","","","","","","","","","","","","","","",""
"","","","","","html-keyboard-response","160","616643","0.0-13.0-0.0","665cb148a4fac709b6b9333a","5acd7cb2e9d7a30001c2cc45","665cb1848fe175472efca253","A","S","1","2","f","","null","<div style=""font-size:60px;"">+</div>","null","","","","","","","","","","","","","",""
"","","","","","noisyLetter","161","619664","0.0-13.0-1.0","665cb148a4fac709b6b9333a","5acd7cb2e9d7a30001c2cc45","665cb1848fe175472efca253","A","S","1","2","f","","","","f","1885.3999999985099","","","0.3","0.35","false","test2","1","S","f","true","0.5698412698412698","1059.2000000029802",""
"","","","","","html-keyboard-response","162","620670","0.0-13.0-2.0","665cb148a4fac709b6b9333a","5acd7cb2e9d7a30001c2cc45","665cb1848fe175472efca253","A","S","1","2","f","","null","<div style=""width:150px;height:56px;font-size:30px;text-align:center;"">correct!</div>","null","","","","","","","","","","","","","",""
"","","","","","html-keyboard-response","163","621474","0.0-13.0-0.1","665cb148a4fac709b6b9333a","5acd7cb2e9d7a30001c2cc45","665cb1848fe175472efca253","A","S","1","2","f","","null","<div style=""font-size:60px;"">+</div>","null","","","","","","","","","","","","","",""
"","","","","","noisyLetter","164","627014","0.0-13.0-1.1","665cb148a4fac709b6b9333a","5acd7cb2e9d7a30001c2cc45","665cb1848fe175472efca253","A","S","1","2","f","","","","f","4035.60000000149","","","0.3","0.35","false","test2","0","S","g","false","0.46190476190476193","1309.5999999940395",""
"","","","","","html-keyboard-response","165","629520","0.0-13.0-2.1","665cb148a4fac709b6b9333a","5acd7cb2e9d7a30001c2cc45","665cb1848fe175472efca253","A","S","1","2","f","","null","<div style=""width:150px;height:56px;border:0px;font-size:30px;text-align:center"">wrong.</div>","null","","","","","","","","","","","","","",""
"","","","","","html-keyboard-response","166","630117","0.0-13.0-0.2","665cb148a4fac709b6b9333a","5acd7cb2e9d7a30001c2cc45","665cb1848fe175472efca253","A","S","1","2","f","","null","<div style=""font-size:60px;"">+</div>","null","","","","","","","","","","","","","",""
"","","","","","noisyLetter","167","638531","0.0-13.0-1.2","665cb148a4fac709b6b9333a","5acd7cb2e9d7a30001c2cc45","665cb1848fe175472efca253","A","S","1","2","f","","","","g","7331.0999999940395","","","0.3","0.1","false","test2","0","S","g","true","0.4841269841269841","938.5",""
"","","","","","html-keyboard-response","168","639533","0.0-13.0-2.2","665cb148a4fac709b6b9333a","5acd7cb2e9d7a30001c2cc45","665cb1848fe175472efca253","A","S","1","2","f","","null","<div style=""width:150px;height:56px;font-size:30px;text-align:center;"">correct!</div>","null","","","","","","","","","","","","","",""
"","","","","","html-keyboard-response","169","640237","0.0-13.0-0.3","665cb148a4fac709b6b9333a","5acd7cb2e9d7a30001c2cc45","665cb1848fe175472efca253","A","S","1","2","f","","null","<div style=""font-size:60px;"">+</div>","null","","","","","","","","","","","","","",""
"","","","","","noisyLetter","170","646653","0.0-13.0-1.3","665cb148a4fac709b6b9333a","5acd7cb2e9d7a30001c2cc45","665cb1848fe175472efca253","A","S","1","2","f","","","","f","5175.5999999940395","","","0.3","0.1","false","test2","1","S","f","true","0.5380952380952381","1079.8000000044703",""
"","","","","","html-keyboard-response","171","647660","0.0-13.0-2.3","665cb148a4fac709b6b9333a","5acd7cb2e9d7a30001c2cc45","665cb1848fe175472efca253","A","S","1","2","f","","null","<div style=""width:150px;height:56px;font-size:30px;text-align:center;"">correct!</div>","null","","","","","","","","","","","","","",""
"","","","","","html-keyboard-response","172","648186","0.0-13.0-0.4","665cb148a4fac709b6b9333a","5acd7cb2e9d7a30001c2cc45","665cb1848fe175472efca253","A","S","1","2","f","","null","<div style=""font-size:60px;"">+</div>","null","","","","","","","","","","","","","",""
"","","","","","noisyLetter","173","654992","0.0-13.0-1.4","665cb148a4fac709b6b9333a","5acd7cb2e9d7a30001c2cc45","665cb1848fe175472efca253","A","S","1","2","f","","","","g","5696.89999999851","","","0.3","0.1","false","test2","0","S","g","true","0.41428571428571426","945.7999999970198",""
"","","","","","html-keyboard-response","174","655998","0.0-13.0-2.4","665cb148a4fac709b6b9333a","5acd7cb2e9d7a30001c2cc45","665cb1848fe175472efca253","A","S","1","2","f","","null","<div style=""width:150px;height:56px;font-size:30px;text-align:center;"">correct!</div>","null","","","","","","","","","","","","","",""
"","","","","","html-keyboard-response","175","656844","0.0-13.0-0.5","665cb148a4fac709b6b9333a","5acd7cb2e9d7a30001c2cc45","665cb1848fe175472efca253","A","S","1","2","f","","null","<div style=""font-size:60px;"">+</div>","null","","","","","","","","","","","","","",""
"","","","","","noisyLetter","176","663795","0.0-13.0-1.5","665cb148a4fac709b6b9333a","5acd7cb2e9d7a30001c2cc45","665cb1848fe175472efca253","A","S","1","2","f","","","","g","5784.5","","","0.3","0.35","false","test2","0","S","g","true","0.4206349206349206","973.7000000029802",""
"","","","","","html-keyboard-response","177","664801","0.0-13.0-2.5","665cb148a4fac709b6b9333a","5acd7cb2e9d7a30001c2cc45","665cb1848fe175472efca253","A","S","1","2","f","","null","<div style=""width:150px;height:56px;font-size:30px;text-align:center;"">correct!</div>","null","","","","","","","","","","","","","",""
"","","","","","html-keyboard-response","178","665427","0.0-13.0-0.6","665cb148a4fac709b6b9333a","5acd7cb2e9d7a30001c2cc45","665cb1848fe175472efca253","A","S","1","2","f","","null","<div style=""font-size:60px;"">+</div>","null","","","","","","","","","","","","","",""
"","","","","","noisyLetter","179","668246","0.0-13.0-1.6","665cb148a4fac709b6b9333a","5acd7cb2e9d7a30001c2cc45","665cb1848fe175472efca253","A","S","1","2","f","","","","f","1707.4000000059605","","","0.3","0.35","false","test2","1","S","f","true","0.5873015873015873","912",""
"","","","","","html-keyboard-response","180","669248","0.0-13.0-2.6","665cb148a4fac709b6b9333a","5acd7cb2e9d7a30001c2cc45","665cb1848fe175472efca253","A","S","1","2","f","","null","<div style=""width:150px;height:56px;font-size:30px;text-align:center;"">correct!</div>","null","","","","","","","","","","","","","",""
"","","","","","html-keyboard-response","181","669997","0.0-13.0-0.7","665cb148a4fac709b6b9333a","5acd7cb2e9d7a30001c2cc45","665cb1848fe175472efca253","A","S","1","2","f","","null","<div style=""font-size:60px;"">+</div>","null","","","","","","","","","","","","","",""
"","","","","","noisyLetter","182","672746","0.0-13.0-1.7","665cb148a4fac709b6b9333a","5acd7cb2e9d7a30001c2cc45","665cb1848fe175472efca253","A","S","1","2","f","","","","f","1662.6999999955297","","","0.3","0.1","false","test2","1","S","f","true","0.626984126984127","936.9000000059605",""
"","","","","","html-keyboard-response","183","673747","0.0-13.0-2.7","665cb148a4fac709b6b9333a","5acd7cb2e9d7a30001c2cc45","665cb1848fe175472efca253","A","S","1","2","f","","null","<div style=""width:150px;height:56px;font-size:30px;text-align:center;"">correct!</div>","null","","","","","","","","","","","","","",""
"","","","","","html-keyboard-response","184","674695","0.0-13.0-0.8","665cb148a4fac709b6b9333a","5acd7cb2e9d7a30001c2cc45","665cb1848fe175472efca253","A","S","1","2","f","","null","<div style=""font-size:60px;"">+</div>","null","","","","","","","","","","","","","",""
"","","","","","noisyLetter","185","677530","0.0-13.0-1.8","665cb148a4fac709b6b9333a","5acd7cb2e9d7a30001c2cc45","665cb1848fe175472efca253","A","S","1","2","f","","","","f","1824.6000000014901","","","0.3","0.1","false","test2","1","S","f","true","0.792063492063492","965",""
"","","","","","html-keyboard-response","186","678531","0.0-13.0-2.8","665cb148a4fac709b6b9333a","5acd7cb2e9d7a30001c2cc45","665cb1848fe175472efca253","A","S","1","2","f","","null","<div style=""width:150px;height:56px;font-size:30px;text-align:center;"">correct!</div>","null","","","","","","","","","","","","","",""
"","","","","","html-keyboard-response","187","679520","0.0-13.0-0.9","665cb148a4fac709b6b9333a","5acd7cb2e9d7a30001c2cc45","665cb1848fe175472efca253","A","S","1","2","f","","null","<div style=""font-size:60px;"">+</div>","null","","","","","","","","","","","","","",""
"","","","","","noisyLetter","188","682297","0.0-13.0-1.9","665cb148a4fac709b6b9333a","5acd7cb2e9d7a30001c2cc45","665cb1848fe175472efca253","A","S","1","2","f","","","","f","1801.3000000044703","","","0.3","0.35","false","test2","1","S","f","true","0.7714285714285715","902.5",""
"","","","","","html-keyboard-response","189","683303","0.0-13.0-2.9","665cb148a4fac709b6b9333a","5acd7cb2e9d7a30001c2cc45","665cb1848fe175472efca253","A","S","1","2","f","","null","<div style=""width:150px;height:56px;font-size:30px;text-align:center;"">correct!</div>","null","","","","","","","","","","","","","",""
"","","","","","html-keyboard-response","190","683860","0.0-13.0-0.10","665cb148a4fac709b6b9333a","5acd7cb2e9d7a30001c2cc45","665cb1848fe175472efca253","A","S","1","2","f","","null","<div style=""font-size:60px;"">+</div>","null","","","","","","","","","","","","","",""
"","","","","","noisyLetter","191","688681","0.0-13.0-1.10","665cb148a4fac709b6b9333a","5acd7cb2e9d7a30001c2cc45","665cb1848fe175472efca253","A","S","1","2","f","","","","g","3922.60000000149","","","0.3","0.35","false","test2","0","S","g","true","0.5095238095238095","749.1000000014901",""
"","","","","","html-keyboard-response","192","689684","0.0-13.0-2.10","665cb148a4fac709b6b9333a","5acd7cb2e9d7a30001c2cc45","665cb1848fe175472efca253","A","S","1","2","f","","null","<div style=""width:150px;height:56px;font-size:30px;text-align:center;"">correct!</div>","null","","","","","","","","","","","","","",""
"","","","","","html-keyboard-response","193","690431","0.0-13.0-0.11","665cb148a4fac709b6b9333a","5acd7cb2e9d7a30001c2cc45","665cb1848fe175472efca253","A","S","1","2","f","","null","<div style=""font-size:60px;"">+</div>","null","","","","","","","","","","","","","",""
"","","","","","noisyLetter","194","694515","0.0-13.0-1.11","665cb148a4fac709b6b9333a","5acd7cb2e9d7a30001c2cc45","665cb1848fe175472efca253","A","S","1","2","f","","","","g","3115.7999999970198","","","0.3","0.1","false","test2","0","S","g","true","0.5523809523809524","772.8000000044703",""
"","","","","","html-keyboard-response","195","695521","0.0-13.0-2.11","665cb148a4fac709b6b9333a","5acd7cb2e9d7a30001c2cc45","665cb1848fe175472efca253","A","S","1","2","f","","null","<div style=""width:150px;height:56px;font-size:30px;text-align:center;"">correct!</div>","null","","","","","","","","","","","","","",""
"","","","","","html-keyboard-response","196","696132","0.0-13.0-0.12","665cb148a4fac709b6b9333a","5acd7cb2e9d7a30001c2cc45","665cb1848fe175472efca253","A","S","1","2","f","","null","<div style=""font-size:60px;"">+</div>","null","","","","","","","","","","","","","",""
"","","","","","noisyLetter","197","700148","0.0-13.0-1.12","665cb148a4fac709b6b9333a","5acd7cb2e9d7a30001c2cc45","665cb1848fe175472efca253","A","S","1","2","f","","","","g","2971.5","","","0.3","0.1","false","test2","0","S","g","true","0.5095238095238095","881",""
"","","","","","html-keyboard-response","198","701154","0.0-13.0-2.12","665cb148a4fac709b6b9333a","5acd7cb2e9d7a30001c2cc45","665cb1848fe175472efca253","A","S","1","2","f","","null","<div style=""width:150px;height:56px;font-size:30px;text-align:center;"">correct!</div>","null","","","","","","","","","","","","","",""
"","","","","","html-keyboard-response","199","701734","0.0-13.0-0.13","665cb148a4fac709b6b9333a","5acd7cb2e9d7a30001c2cc45","665cb1848fe175472efca253","A","S","1","2","f","","null","<div style=""font-size:60px;"">+</div>","null","","","","","","","","","","","","","",""
"","","","","","noisyLetter","200","704282","0.0-13.0-1.13","665cb148a4fac709b6b9333a","5acd7cb2e9d7a30001c2cc45","665cb1848fe175472efca253","A","S","1","2","f","","","","f","1290.6000000014901","","","0.3","0.1","false","test2","1","S","f","true","0.6412698412698412","1066.8999999985099",""
"","","","","","html-keyboard-response","201","705285","0.0-13.0-2.13","665cb148a4fac709b6b9333a","5acd7cb2e9d7a30001c2cc45","665cb1848fe175472efca253","A","S","1","2","f","","null","<div style=""width:150px;height:56px;font-size:30px;text-align:center;"">correct!</div>","null","","","","","","","","","","","","","",""
"","","","","","html-keyboard-response","202","706128","0.0-13.0-0.14","665cb148a4fac709b6b9333a","5acd7cb2e9d7a30001c2cc45","665cb1848fe175472efca253","A","S","1","2","f","","null","<div style=""font-size:60px;"">+</div>","null","","","","","","","","","","","","","",""
"","","","","","noisyLetter","203","708965","0.0-13.0-1.14","665cb148a4fac709b6b9333a","5acd7cb2e9d7a30001c2cc45","665cb1848fe175472efca253","A","S","1","2","f","","","","f","1800.8000000044703","","","0.3","0.35","false","test2","1","S","f","true","0.5317460317460317","973.5",""
"","","","","","html-keyboard-response","204","709971","0.0-13.0-2.14","665cb148a4fac709b6b9333a","5acd7cb2e9d7a30001c2cc45","665cb1848fe175472efca253","A","S","1","2","f","","null","<div style=""width:150px;height:56px;font-size:30px;text-align:center;"">correct!</div>","null","","","","","","","","","","","","","",""
"","","","","","html-keyboard-response","205","710834","0.0-13.0-0.15","665cb148a4fac709b6b9333a","5acd7cb2e9d7a30001c2cc45","665cb1848fe175472efca253","A","S","1","2","f","","null","<div style=""font-size:60px;"">+</div>","null","","","","","","","","","","","","","",""
"","","","","","noisyLetter","206","713648","0.0-13.0-1.15","665cb148a4fac709b6b9333a","5acd7cb2e9d7a30001c2cc45","665cb1848fe175472efca253","A","S","1","2","f","","","","g","1846","","","0.3","0.35","false","test2","0","S","g","true","0.4365079365079365","768.1000000014901",""
"","","","","","html-keyboard-response","207","714655","0.0-13.0-2.15","665cb148a4fac709b6b9333a","5acd7cb2e9d7a30001c2cc45","665cb1848fe175472efca253","A","S","1","2","f","","null","<div style=""width:150px;height:56px;font-size:30px;text-align:center;"">correct!</div>","null","","","","","","","","","","","","","",""
"","","","","","instructions","208","719724","0.0-14.0","665cb148a4fac709b6b9333a","5acd7cb2e9d7a30001c2cc45","665cb1848fe175472efca253","A","S","1","2","f","[{""page_index"":0,""viewing_time"":5067}]","5067","","","","","","","","","","","","","","","",""
"","","","","","html-keyboard-response","209","720572","0.0-15.0-0.0","665cb148a4fac709b6b9333a","5acd7cb2e9d7a30001c2cc45","665cb1848fe175472efca253","A","S","1","2","f","","null","<div style=""font-size:60px;"">+</div>","null","","","","","","","","","","","","","",""
"","","","","","noisyLetter","210","722998","0.0-15.0-1.0","665cb148a4fac709b6b9333a","5acd7cb2e9d7a30001c2cc45","665cb1848fe175472efca253","A","S","1","2","f","","","","f","1586.5","","","0.3","0.1","false","test2","1","S","f","true","0.5936507936507937","808.6000000014901",""
"","","","","","html-keyboard-response","211","724001","0.0-15.0-2.0","665cb148a4fac709b6b9333a","5acd7cb2e9d7a30001c2cc45","665cb1848fe175472efca253","A","S","1","2","f","","null","<div style=""width:150px;height:56px;font-size:30px;text-align:center;"">correct!</div>","null","","","","","","","","","","","","","",""
"","","","","","html-keyboard-response","212","724892","0.0-15.0-0.1","665cb148a4fac709b6b9333a","5acd7cb2e9d7a30001c2cc45","665cb1848fe175472efca253","A","S","1","2","f","","null","<div style=""font-size:60px;"">+</div>","null","","","","","","","","","","","","","",""
"","","","","","noisyLetter","213","727515","0.0-15.0-1.1","665cb148a4fac709b6b9333a","5acd7cb2e9d7a30001c2cc45","665cb1848fe175472efca253","A","S","1","2","f","","","","f","1634","","","0.3","0.35","false","test2","1","S","f","true","0.6333333333333333","959.3999999985099",""
"","","","","","html-keyboard-response","214","728521","0.0-15.0-2.1","665cb148a4fac709b6b9333a","5acd7cb2e9d7a30001c2cc45","665cb1848fe175472efca253","A","S","1","2","f","","null","<div style=""width:150px;height:56px;font-size:30px;text-align:center;"">correct!</div>","null","","","","","","","","","","","","","",""
"","","","","","html-keyboard-response","215","729103","0.0-15.0-0.2","665cb148a4fac709b6b9333a","5acd7cb2e9d7a30001c2cc45","665cb1848fe175472efca253","A","S","1","2","f","","null","<div style=""font-size:60px;"">+</div>","null","","","","","","","","","","","","","",""
"","","","","","noisyLetter","216","731598","0.0-15.0-1.2","665cb148a4fac709b6b9333a","5acd7cb2e9d7a30001c2cc45","665cb1848fe175472efca253","A","S","1","2","f","","","","g","1634.5999999940395","","","0.3","0.35","false","test2","0","S","g","true","0.5507936507936508","814.8000000044703",""
"","","","","","html-keyboard-response","217","732601","0.0-15.0-2.2","665cb148a4fac709b6b9333a","5acd7cb2e9d7a30001c2cc45","665cb1848fe175472efca253","A","S","1","2","f","","null","<div style=""width:150px;height:56px;font-size:30px;text-align:center;"">correct!</div>","null","","","","","","","","","","","","","",""
"","","","","","html-keyboard-response","218","733121","0.0-15.0-0.3","665cb148a4fac709b6b9333a","5acd7cb2e9d7a30001c2cc45","665cb1848fe175472efca253","A","S","1","2","f","","null","<div style=""font-size:60px;"">+</div>","null","","","","","","","","","","","","","",""
"","","","","","noisyLetter","219","738415","0.0-15.0-1.3","665cb148a4fac709b6b9333a","5acd7cb2e9d7a30001c2cc45","665cb1848fe175472efca253","A","S","1","2","f","","","","g","4468.80000000447","","","0.3","0.1","false","test2","0","S","g","true","0.4714285714285714","766.8999999985099",""
"","","","","","html-keyboard-response","220","739416","0.0-15.0-2.3","665cb148a4fac709b6b9333a","5acd7cb2e9d7a30001c2cc45","665cb1848fe175472efca253","A","S","1","2","f","","null","<div style=""width:150px;height:56px;font-size:30px;text-align:center;"">correct!</div>","null","","","","","","","","","","","","","",""
"","","","","","html-keyboard-response","221","739951","0.0-15.0-0.4","665cb148a4fac709b6b9333a","5acd7cb2e9d7a30001c2cc45","665cb1848fe175472efca253","A","S","1","2","f","","null","<div style=""font-size:60px;"">+</div>","null","","","","","","","","","","","","","",""
"","","","","","noisyLetter","222","743632","0.0-15.0-1.4","665cb148a4fac709b6b9333a","5acd7cb2e9d7a30001c2cc45","665cb1848fe175472efca253","A","S","1","2","f","","","","g","2649.2000000029802","","","0.3","0.35","false","test2","0","S","g","true","0.43492063492063493","887.1000000014901",""
"","","","","","html-keyboard-response","223","744637","0.0-15.0-2.4","665cb148a4fac709b6b9333a","5acd7cb2e9d7a30001c2cc45","665cb1848fe175472efca253","A","S","1","2","f","","null","<div style=""width:150px;height:56px;font-size:30px;text-align:center;"">correct!</div>","null","","","","","","","","","","","","","",""
"","","","","","html-keyboard-response","224","745466","0.0-15.0-0.5","665cb148a4fac709b6b9333a","5acd7cb2e9d7a30001c2cc45","665cb1848fe175472efca253","A","S","1","2","f","","null","<div style=""font-size:60px;"">+</div>","null","","","","","","","","","","","","","",""
"","","","","","noisyLetter","225","748415","0.0-15.0-1.5","665cb148a4fac709b6b9333a","5acd7cb2e9d7a30001c2cc45","665cb1848fe175472efca253","A","S","1","2","f","","","","f","1916.8999999985099","","","0.3","0.35","false","test2","1","S","f","true","0.48730158730158735","888.3999999985099",""
"","","","","","html-keyboard-response","226","749420","0.0-15.0-2.5","665cb148a4fac709b6b9333a","5acd7cb2e9d7a30001c2cc45","665cb1848fe175472efca253","A","S","1","2","f","","null","<div style=""width:150px;height:56px;font-size:30px;text-align:center;"">correct!</div>","null","","","","","","","","","","","","","",""
"","","","","","html-keyboard-response","227","750097","0.0-15.0-0.6","665cb148a4fac709b6b9333a","5acd7cb2e9d7a30001c2cc45","665cb1848fe175472efca253","A","S","1","2","f","","null","<div style=""font-size:60px;"">+</div>","null","","","","","","","","","","","","","",""
"","","","","","noisyLetter","228","754049","0.0-15.0-1.6","665cb148a4fac709b6b9333a","5acd7cb2e9d7a30001c2cc45","665cb1848fe175472efca253","A","S","1","2","f","","","","g","2840.89999999851","","","0.3","0.1","false","test2","0","S","g","true","0.4634920634920635","906.3999999985099",""
"","","","","","html-keyboard-response","229","755053","0.0-15.0-2.6","665cb148a4fac709b6b9333a","5acd7cb2e9d7a30001c2cc45","665cb1848fe175472efca253","A","S","1","2","f","","null","<div style=""width:150px;height:56px;font-size:30px;text-align:center;"">correct!</div>","null","","","","","","","","","","","","","",""
"","","","","","html-keyboard-response","230","755997","0.0-15.0-0.7","665cb148a4fac709b6b9333a","5acd7cb2e9d7a30001c2cc45","665cb1848fe175472efca253","A","S","1","2","f","","null","<div style=""font-size:60px;"">+</div>","null","","","","","","","","","","","","","",""
"","","","","","noisyLetter","231","758465","0.0-15.0-1.7","665cb148a4fac709b6b9333a","5acd7cb2e9d7a30001c2cc45","665cb1848fe175472efca253","A","S","1","2","f","","","","f","1368.8999999985099","","","0.3","0.1","false","test2","1","S","f","true","0.6206349206349207","926.8999999985099",""
"","","","","","html-keyboard-response","232","759470","0.0-15.0-2.7","665cb148a4fac709b6b9333a","5acd7cb2e9d7a30001c2cc45","665cb1848fe175472efca253","A","S","1","2","f","","null","<div style=""width:150px;height:56px;font-size:30px;text-align:center;"">correct!</div>","null","","","","","","","","","","","","","",""
"","","","","","html-keyboard-response","233","760290","0.0-15.0-0.8","665cb148a4fac709b6b9333a","5acd7cb2e9d7a30001c2cc45","665cb1848fe175472efca253","A","S","1","2","f","","null","<div style=""font-size:60px;"">+</div>","null","","","","","","","","","","","","","",""
"","","","","","noisyLetter","234","763249","0.0-15.0-1.8","665cb148a4fac709b6b9333a","5acd7cb2e9d7a30001c2cc45","665cb1848fe175472efca253","A","S","1","2","f","","","","g","2123.3000000044703","","","0.3","0.1","false","test2","0","S","g","true","0.5063492063492063","787.2999999970198",""
"","","","","","html-keyboard-response","235","764251","0.0-15.0-2.8","665cb148a4fac709b6b9333a","5acd7cb2e9d7a30001c2cc45","665cb1848fe175472efca253","A","S","1","2","f","","null","<div style=""width:150px;height:56px;font-size:30px;text-align:center;"">correct!</div>","null","","","","","","","","","","","","","",""
"","","","","","html-keyboard-response","236","765073","0.0-15.0-0.9","665cb148a4fac709b6b9333a","5acd7cb2e9d7a30001c2cc45","665cb1848fe175472efca253","A","S","1","2","f","","null","<div style=""font-size:60px;"">+</div>","null","","","","","","","","","","","","","",""
"","","","","","noisyLetter","237","769415","0.0-15.0-1.9","665cb148a4fac709b6b9333a","5acd7cb2e9d7a30001c2cc45","665cb1848fe175472efca253","A","S","1","2","f","","","","f","3343.5999999940395","","","0.3","0.1","false","test2","1","S","f","true","0.553968253968254","859.7000000029802",""
"","","","","","html-keyboard-response","238","770422","0.0-15.0-2.9","665cb148a4fac709b6b9333a","5acd7cb2e9d7a30001c2cc45","665cb1848fe175472efca253","A","S","1","2","f","","null","<div style=""width:150px;height:56px;font-size:30px;text-align:center;"">correct!</div>","null","","","","","","","","","","","","","",""
"","","","","","html-keyboard-response","239","771203","0.0-15.0-0.10","665cb148a4fac709b6b9333a","5acd7cb2e9d7a30001c2cc45","665cb1848fe175472efca253","A","S","1","2","f","","null","<div style=""font-size:60px;"">+</div>","null","","","","","","","","","","","","","",""
"","","","","","noisyLetter","240","774215","0.0-15.0-1.10","665cb148a4fac709b6b9333a","5acd7cb2e9d7a30001c2cc45","665cb1848fe175472efca253","A","S","1","2","f","","","","g","2044.1999999955297","","","0.3","0.35","false","test2","0","S","g","true","0.4666666666666667","792.2000000029802",""
"","","","","","html-keyboard-response","241","775221","0.0-15.0-2.10","665cb148a4fac709b6b9333a","5acd7cb2e9d7a30001c2cc45","665cb1848fe175472efca253","A","S","1","2","f","","null","<div style=""width:150px;height:56px;font-size:30px;text-align:center;"">correct!</div>","null","","","","","","","","","","","","","",""
"","","","","","html-keyboard-response","242","776219","0.0-15.0-0.11","665cb148a4fac709b6b9333a","5acd7cb2e9d7a30001c2cc45","665cb1848fe175472efca253","A","S","1","2","f","","null","<div style=""font-size:60px;"">+</div>","null","","","","","","","","","","","","","",""
"","","","","","noisyLetter","243","779632","0.0-15.0-1.11","665cb148a4fac709b6b9333a","5acd7cb2e9d7a30001c2cc45","665cb1848fe175472efca253","A","S","1","2","f","","","","g","2339.7000000029802","","","0.3","0.35","false","test2","1","S","f","false","0.4380952380952381","882.5",""
"","","","","","html-keyboard-response","244","782135","0.0-15.0-2.11","665cb148a4fac709b6b9333a","5acd7cb2e9d7a30001c2cc45","665cb1848fe175472efca253","A","S","1","2","f","","null","<div style=""width:150px;height:56px;border:0px;font-size:30px;text-align:center"">wrong.</div>","null","","","","","","","","","","","","","",""
"","","","","","html-keyboard-response","245","783006","0.0-15.0-0.12","665cb148a4fac709b6b9333a","5acd7cb2e9d7a30001c2cc45","665cb1848fe175472efca253","A","S","1","2","f","","null","<div style=""font-size:60px;"">+</div>","null","","","","","","","","","","","","","",""
"","","","","","noisyLetter","246","786882","0.0-15.0-1.12","665cb148a4fac709b6b9333a","5acd7cb2e9d7a30001c2cc45","665cb1848fe175472efca253","A","S","1","2","f","","","","g","2871.8000000044703","","","0.3","0.35","false","test2","1","S","f","false","0.46031746031746035","848.6000000014901",""
"","","","","","html-keyboard-response","247","789383","0.0-15.0-2.12","665cb148a4fac709b6b9333a","5acd7cb2e9d7a30001c2cc45","665cb1848fe175472efca253","A","S","1","2","f","","null","<div style=""width:150px;height:56px;border:0px;font-size:30px;text-align:center"">wrong.</div>","null","","","","","","","","","","","","","",""
"","","","","","html-keyboard-response","248","790339","0.0-15.0-0.13","665cb148a4fac709b6b9333a","5acd7cb2e9d7a30001c2cc45","665cb1848fe175472efca253","A","S","1","2","f","","null","<div style=""font-size:60px;"">+</div>","null","","","","","","","","","","","","","",""
"","","","","","noisyLetter","249","796349","0.0-15.0-1.13","665cb148a4fac709b6b9333a","5acd7cb2e9d7a30001c2cc45","665cb1848fe175472efca253","A","S","1","2","f","","","","g","4964.20000000298","","","0.3","0.35","false","test2","0","S","g","true","0.4206349206349206","906.6999999955297",""
"","","","","","html-keyboard-response","250","797352","0.0-15.0-2.13","665cb148a4fac709b6b9333a","5acd7cb2e9d7a30001c2cc45","665cb1848fe175472efca253","A","S","1","2","f","","null","<div style=""width:150px;height:56px;font-size:30px;text-align:center;"">correct!</div>","null","","","","","","","","","","","","","",""
"","","","","","html-keyboard-response","251","798016","0.0-15.0-0.14","665cb148a4fac709b6b9333a","5acd7cb2e9d7a30001c2cc45","665cb1848fe175472efca253","A","S","1","2","f","","null","<div style=""font-size:60px;"">+</div>","null","","","","","","","","","","","","","",""
"","","","","","noisyLetter","252","804549","0.0-15.0-1.14","665cb148a4fac709b6b9333a","5acd7cb2e9d7a30001c2cc45","665cb1848fe175472efca253","A","S","1","2","f","","","","g","5318","","","0.3","0.1","false","test2","0","S","g","true","0.426984126984127","1073.8000000044703",""
"","","","","","html-keyboard-response","253","805550","0.0-15.0-2.14","665cb148a4fac709b6b9333a","5acd7cb2e9d7a30001c2cc45","665cb1848fe175472efca253","A","S","1","2","f","","null","<div style=""width:150px;height:56px;font-size:30px;text-align:center;"">correct!</div>","null","","","","","","","","","","","","","",""
"","","","","","html-keyboard-response","254","806386","0.0-15.0-0.15","665cb148a4fac709b6b9333a","5acd7cb2e9d7a30001c2cc45","665cb1848fe175472efca253","A","S","1","2","f","","null","<div style=""font-size:60px;"">+</div>","null","","","","","","","","","","","","","",""
"","","","","","noisyLetter","255","809865","0.0-15.0-1.15","665cb148a4fac709b6b9333a","5acd7cb2e9d7a30001c2cc45","665cb1848fe175472efca253","A","S","1","2","f","","","","f","2349.3000000044703","","","0.3","0.1","false","test2","1","S","f","true","0.5317460317460317","942.2999999970198",""
"","","","","","html-keyboard-response","256","810871","0.0-15.0-2.15","665cb148a4fac709b6b9333a","5acd7cb2e9d7a30001c2cc45","665cb1848fe175472efca253","A","S","1","2","f","","null","<div style=""width:150px;height:56px;font-size:30px;text-align:center;"">correct!</div>","null","","","","","","","","","","","","","",""
"","","","","","survey-multi-choice","257","818862","0.0-16.0","665cb148a4fac709b6b9333a","5acd7cb2e9d7a30001c2cc45","665cb1848fe175472efca253","A","S","1","2","f","","7987","","{""which_was_harder"":""Yes! It was harder when more of the display was hidden behind black lines.""}","","","","","","","","","","","","","","[0]"
"","","","","","survey-text","258","859480","0.0-17.0","665cb148a4fac709b6b9333a","5acd7cb2e9d7a30001c2cc45","665cb1848fe175472efca253","A","S","1","2","f","","40614","","{""worker_comments"":""It was easier for me to spot the S for some reason than the A- the first two trials were harder, and the last two with the S got a little easier. I don't know if it was the letter itself or if I just got a little better over time- but the S seemed easier to find! ""}","","","","","","","","","","","","","",""
"","","","","","instructions","259","862312","0.0-18.0","665cb148a4fac709b6b9333a","5acd7cb2e9d7a30001c2cc45","665cb1848fe175472efca253","A","S","1","2","f","[{""page_index"":0,""viewing_time"":2831}]","2831","","","","","","","","","","","","","","","",""
"success","timeout","failed_images","failed_audio","failed_video","trial_type","trial_index","time_elapsed","internal_node_id","STUDY_ID","PROLIFIC_PID","SESSION_ID","first_target","second_target","practice_loops","comprehension_visits","presence_key","view_history","rt","stimulus","response","RT","context_string","context_img","max_p","hide_proportion","descend","test_part","present","target","correct_response","correct","confidence","confidence_RT","question_order"
"true","false","[]","[]","[]","preload","0","44","0.0-0.0","665cb148a4fac709b6b9333a","63068110447ef1aaa9660816","665dad9d87077e2b88bdb562","S","A","0","1","f","","","","","","","","","","","","","","","","","",""
"true","","","","","fullscreen","1","2087","0.0-1.0","665cb148a4fac709b6b9333a","63068110447ef1aaa9660816","665dad9d87077e2b88bdb562","S","A","0","1","f","","","","","","","","","","","","","","","","","",""
"","","","","","instructions","2","20325","0.0-2.0","665cb148a4fac709b6b9333a","63068110447ef1aaa9660816","665dad9d87077e2b88bdb562","S","A","0","1","f","[{""page_index"":0,""viewing_time"":3366},{""page_index"":1,""viewing_time"":5536},{""page_index"":2,""viewing_time"":9336}]","18238","","","","","","","","","","","","","","","",""
"","","","","","html-keyboard-response","3","20947","0.0-3.0-1.0-0.0","665cb148a4fac709b6b9333a","63068110447ef1aaa9660816","665dad9d87077e2b88bdb562","S","A","0","1","f","","null","<div style=""font-size:60px;"">+</div>","null","","","","","","","","","","","","","",""
"","","","","","noisyLetter","4","23939","0.0-3.0-1.0-1.0","665cb148a4fac709b6b9333a","63068110447ef1aaa9660816","665dad9d87077e2b88bdb562","S","A","0","1","f","","","","f","2733.300000011921","","","0.35","0","false","practice","1","S","f","true","","",""
"","","","","","html-keyboard-response","5","25443","0.0-3.0-1.0-2.0","665cb148a4fac709b6b9333a","63068110447ef1aaa9660816","665dad9d87077e2b88bdb562","S","A","0","1","f","","null","<div style=""width:300px;height:56px;font-size:30px;text-align:center;"">Correct! You detected the letter.</div>","null","","","","","","","","","","","","","",""
"","","","","","html-keyboard-response","6","26063","0.0-3.0-1.0-0.1","665cb148a4fac709b6b9333a","63068110447ef1aaa9660816","665dad9d87077e2b88bdb562","S","A","0","1","f","","null","<div style=""font-size:60px;"">+</div>","null","","","","","","","","","","","","","",""
"","","","","","noisyLetter","7","28057","0.0-3.0-1.0-1.1","665cb148a4fac709b6b9333a","63068110447ef1aaa9660816","665dad9d87077e2b88bdb562","S","A","0","1","f","","","","g","1738.699999988079","","","0.35","0","false","practice","0","S","g","true","","",""
"","","","","","html-keyboard-response","8","29572","0.0-3.0-1.0-2.1","665cb148a4fac709b6b9333a","63068110447ef1aaa9660816","665dad9d87077e2b88bdb562","S","A","0","1","f","","null","<div style=""width:300px;height:56px;border:0px;font-size:30px;text-align:center"">Correct! This was just noise.</div>","null","","","","","","","","","","","","","",""
"","","","","","html-keyboard-response","9","30098","0.0-3.0-1.0-0.2","665cb148a4fac709b6b9333a","63068110447ef1aaa9660816","665dad9d87077e2b88bdb562","S","A","0","1","f","","null","<div style=""font-size:60px;"">+</div>","null","","","","","","","","","","","","","",""
"","","","","","noisyLetter","10","31571","0.0-3.0-1.0-1.2","665cb148a4fac709b6b9333a","63068110447ef1aaa9660816","665dad9d87077e2b88bdb562","S","A","0","1","f","","","","f","1225.300000011921","","","0.35","0","false","practice","1","S","f","true","","",""
"","","","","","html-keyboard-response","11","33073","0.0-3.0-1.0-2.2","665cb148a4fac709b6b9333a","63068110447ef1aaa9660816","665dad9d87077e2b88bdb562","S","A","0","1","f","","null","<div style=""width:300px;height:56px;font-size:30px;text-align:center;"">Correct! You detected the letter.</div>","null","","","","","","","","","","","","","",""
"","","","","","html-keyboard-response","12","33656","0.0-3.0-1.0-0.3","665cb148a4fac709b6b9333a","63068110447ef1aaa9660816","665dad9d87077e2b88bdb562","S","A","0","1","f","","null","<div style=""font-size:60px;"">+</div>","null","","","","","","","","","","","","","",""
"","","","","","noisyLetter","13","35807","0.0-3.0-1.0-1.3","665cb148a4fac709b6b9333a","63068110447ef1aaa9660816","665dad9d87077e2b88bdb562","S","A","0","1","f","","","","g","1924.7000000178814","","","0.35","0","false","practice","0","S","g","true","","",""
"","","","","","html-keyboard-response","14","37318","0.0-3.0-1.0-2.3","665cb148a4fac709b6b9333a","63068110447ef1aaa9660816","665dad9d87077e2b88bdb562","S","A","0","1","f","","null","<div style=""width:300px;height:56px;border:0px;font-size:30px;text-align:center"">Correct! This was just noise.</div>","null","","","","","","","","","","","","","",""
"","","","","","instructions","15","41149","0.0-4.0","665cb148a4fac709b6b9333a","63068110447ef1aaa9660816","665dad9d87077e2b88bdb562","S","A","0","1","f","[{""page_index"":0,""viewing_time"":2799},{""page_index"":1,""viewing_time"":1032}]","3831","","","","","","","","","","","","","","","",""
"","","","","","html-keyboard-response","16","41748","0.0-5.0-1.0-0.0-0.0","665cb148a4fac709b6b9333a","63068110447ef1aaa9660816","665dad9d87077e2b88bdb562","S","A","0","1","f","","null","<div style=""font-size:60px;"">+</div>","null","","","","","","","","","","","","","",""
"","","","","","noisyLetter","17","45481","0.0-5.0-1.0-0.0-1.0","665cb148a4fac709b6b9333a","63068110447ef1aaa9660816","665dad9d87077e2b88bdb562","S","A","0","1","f","","","","f","2374.5999999940395","","","0.35","0","false","practice","1","S","f","true","0.9462962962962963","1317",""
"","","","","","html-keyboard-response","18","46230","0.0-5.0-1.0-0.0-0.1","665cb148a4fac709b6b9333a","63068110447ef1aaa9660816","665dad9d87077e2b88bdb562","S","A","0","1","f","","null","<div style=""font-size:60px;"">+</div>","null","","","","","","","","","","","","","",""
"","","","","","noisyLetter","19","49078","0.0-5.0-1.0-0.0-1.1","665cb148a4fac709b6b9333a","63068110447ef1aaa9660816","665dad9d87077e2b88bdb562","S","A","0","1","f","","","","g","1656.300000011921","","","0.35","0","false","practice","0","S","g","true","1","1112.7999999821186",""
"","","","","","html-keyboard-response","20","49746","0.0-5.0-1.0-0.0-0.2","665cb148a4fac709b6b9333a","63068110447ef1aaa9660816","665dad9d87077e2b88bdb562","S","A","0","1","f","","null","<div style=""font-size:60px;"">+</div>","null","","","","","","","","","","","","","",""
"","","","","","noisyLetter","21","53779","0.0-5.0-1.0-0.0-1.2","665cb148a4fac709b6b9333a","63068110447ef1aaa9660816","665dad9d87077e2b88bdb562","S","A","0","1","f","","","","f","1554.699999988079","","","0.35","0","false","practice","1","S","f","true","0.962962962962963","2398.2000000178814",""
"","","","","","html-keyboard-response","22","54713","0.0-5.0-1.0-0.0-0.3","665cb148a4fac709b6b9333a","63068110447ef1aaa9660816","665dad9d87077e2b88bdb562","S","A","0","1","f","","null","<div style=""font-size:60px;"">+</div>","null","","","","","","","","","","","","","",""
"","","","","","noisyLetter","23","57509","0.0-5.0-1.0-0.0-1.3","665cb148a4fac709b6b9333a","63068110447ef1aaa9660816","665dad9d87077e2b88bdb562","S","A","0","1","f","","","","g","1577.5","","","0.35","0","false","practice","0","S","g","true","0.8351851851851853","1160",""
"","","","","","survey-multi-choice","24","67418","0.0-5.0-1.0-1.0","665cb148a4fac709b6b9333a","63068110447ef1aaa9660816","665dad9d87077e2b88bdb562","S","A","0","1","f","","9908","","{""multichoice_confidence"":""2. very confident that there was no letter in the noise.""}","","","","","","","","","","","","","","[0]"
"","","","","","instructions","25","80037","0.0-6.0","665cb148a4fac709b6b9333a","63068110447ef1aaa9660816","665dad9d87077e2b88bdb562","S","A","0","1","f","[{""page_index"":0,""viewing_time"":8586},{""page_index"":1,""viewing_time"":4031}]","12618","","","","","","","","","","","","","","","",""
"","","","","","html-keyboard-response","26","80970","0.0-7.0-0.0","665cb148a4fac709b6b9333a","63068110447ef1aaa9660816","665dad9d87077e2b88bdb562","S","A","0","1","f","","null","<div style=""font-size:60px;"">+</div>","null","","","","","","","","","","","","","",""
"","","","","","noisyLetter","27","85759","0.0-7.0-1.0","665cb148a4fac709b6b9333a","63068110447ef1aaa9660816","665dad9d87077e2b88bdb562","S","A","0","1","f","","","","g","3112.5","","","0.3","0.1","false","test1","0","S","g","true","0.9037037037037037","1602.800000011921",""
"","","","","","html-keyboard-response","28","86761","0.0-7.0-2.0","665cb148a4fac709b6b9333a","63068110447ef1aaa9660816","665dad9d87077e2b88bdb562","S","A","0","1","f","","null","<div style=""width:150px;height:56px;font-size:30px;text-align:center;"">correct!</div>","null","","","","","","","","","","","","","",""
"","","","","","html-keyboard-response","29","87496","0.0-7.0-0.1","665cb148a4fac709b6b9333a","63068110447ef1aaa9660816","665dad9d87077e2b88bdb562","S","A","0","1","f","","null","<div style=""font-size:60px;"">+</div>","null","","","","","","","","","","","","","",""
"","","","","","noisyLetter","30","90718","0.0-7.0-1.1","665cb148a4fac709b6b9333a","63068110447ef1aaa9660816","665dad9d87077e2b88bdb562","S","A","0","1","f","","","","f","1994.9000000059605","","","0.3","0.35","false","test1","1","S","f","true","0.9277777777777778","1175.0999999940395",""
"","","","","","html-keyboard-response","31","91719","0.0-7.0-2.1","665cb148a4fac709b6b9333a","63068110447ef1aaa9660816","665dad9d87077e2b88bdb562","S","A","0","1","f","","null","<div style=""width:150px;height:56px;font-size:30px;text-align:center;"">correct!</div>","null","","","","","","","","","","","","","",""
"","","","","","html-keyboard-response","32","92458","0.0-7.0-0.2","665cb148a4fac709b6b9333a","63068110447ef1aaa9660816","665dad9d87077e2b88bdb562","S","A","0","1","f","","null","<div style=""font-size:60px;"">+</div>","null","","","","","","","","","","","","","",""
"","","","","","noisyLetter","33","95940","0.0-7.0-1.2","665cb148a4fac709b6b9333a","63068110447ef1aaa9660816","665dad9d87077e2b88bdb562","S","A","0","1","f","","","","g","2312.2999999821186","","","0.3","0.35","false","test1","0","S","g","true","0.8518518518518519","1120",""
"","","","","","html-keyboard-response","34","96941","0.0-7.0-2.2","665cb148a4fac709b6b9333a","63068110447ef1aaa9660816","665dad9d87077e2b88bdb562","S","A","0","1","f","","null","<div style=""width:150px;height:56px;font-size:30px;text-align:center;"">correct!</div>","null","","","","","","","","","","","","","",""
"","","","","","html-keyboard-response","35","97698","0.0-7.0-0.3","665cb148a4fac709b6b9333a","63068110447ef1aaa9660816","665dad9d87077e2b88bdb562","S","A","0","1","f","","null","<div style=""font-size:60px;"">+</div>","null","","","","","","","","","","","","","",""
"","","","","","noisyLetter","36","100607","0.0-7.0-1.3","665cb148a4fac709b6b9333a","63068110447ef1aaa9660816","665dad9d87077e2b88bdb562","S","A","0","1","f","","","","f","1825.5","","","0.3","0.1","false","test1","1","S","f","true","0.9259259259259259","1000.9000000059605",""
"","","","","","html-keyboard-response","37","101608","0.0-7.0-2.3","665cb148a4fac709b6b9333a","63068110447ef1aaa9660816","665dad9d87077e2b88bdb562","S","A","0","1","f","","null","<div style=""width:150px;height:56px;font-size:30px;text-align:center;"">correct!</div>","null","","","","","","","","","","","","","",""
"","","","","","html-keyboard-response","38","102396","0.0-7.0-0.4","665cb148a4fac709b6b9333a","63068110447ef1aaa9660816","665dad9d87077e2b88bdb562","S","A","0","1","f","","null","<div style=""font-size:60px;"">+</div>","null","","","","","","","","","","","","","",""
"","","","","","noisyLetter","39","105184","0.0-7.0-1.4","665cb148a4fac709b6b9333a","63068110447ef1aaa9660816","665dad9d87077e2b88bdb562","S","A","0","1","f","","","","f","1838.2999999821186","","","0.3","0.35","false","test1","1","S","f","true","0.8740740740740741","881",""
"","","","","","html-keyboard-response","40","106184","0.0-7.0-2.4","665cb148a4fac709b6b9333a","63068110447ef1aaa9660816","665dad9d87077e2b88bdb562","S","A","0","1","f","","null","<div style=""width:150px;height:56px;font-size:30px;text-align:center;"">correct!</div>","null","","","","","","","","","","","","","",""
"","","","","","html-keyboard-response","41","107067","0.0-7.0-0.5","665cb148a4fac709b6b9333a","63068110447ef1aaa9660816","665dad9d87077e2b88bdb562","S","A","0","1","f","","null","<div style=""font-size:60px;"">+</div>","null","","","","","","","","","","","","","",""
"","","","","","noisyLetter","42","110538","0.0-7.0-1.5","665cb148a4fac709b6b9333a","63068110447ef1aaa9660816","665dad9d87077e2b88bdb562","S","A","0","1","f","","","","g","2307","","","0.3","0.1","false","test1","1","S","f","false","0.7240740740740741","1082",""
"","","","","","html-keyboard-response","43","113039","0.0-7.0-2.5","665cb148a4fac709b6b9333a","63068110447ef1aaa9660816","665dad9d87077e2b88bdb562","S","A","0","1","f","","null","<div style=""width:150px;height:56px;border:0px;font-size:30px;text-align:center"">wrong.</div>","null","","","","","","","","","","","","","",""
"","","","","","html-keyboard-response","44","113902","0.0-7.0-0.6","665cb148a4fac709b6b9333a","63068110447ef1aaa9660816","665dad9d87077e2b88bdb562","S","A","0","1","f","","null","<div style=""font-size:60px;"">+</div>","null","","","","","","","","","","","","","",""
"","","","","","noisyLetter","45","116441","0.0-7.0-1.6","665cb148a4fac709b6b9333a","63068110447ef1aaa9660816","665dad9d87077e2b88bdb562","S","A","0","1","f","","","","g","1579.199999988079","","","0.3","0.1","false","test1","0","S","g","true","0.5907407407407408","893.7000000178814",""
"","","","","","html-keyboard-response","46","117442","0.0-7.0-2.6","665cb148a4fac709b6b9333a","63068110447ef1aaa9660816","665dad9d87077e2b88bdb562","S","A","0","1","f","","null","<div style=""width:150px;height:56px;font-size:30px;text-align:center;"">correct!</div>","null","","","","","","","","","","","","","",""
"","","","","","html-keyboard-response","47","118253","0.0-7.0-0.7","665cb148a4fac709b6b9333a","63068110447ef1aaa9660816","665dad9d87077e2b88bdb562","S","A","0","1","f","","null","<div style=""font-size:60px;"">+</div>","null","","","","","","","","","","","","","",""
"","","","","","noisyLetter","48","121476","0.0-7.0-1.7","665cb148a4fac709b6b9333a","63068110447ef1aaa9660816","665dad9d87077e2b88bdb562","S","A","0","1","f","","","","g","2205.699999988079","","","0.3","0.35","false","test1","0","S","g","true","0.7685185185185185","942.9000000059605",""
"","","","","","html-keyboard-response","49","122476","0.0-7.0-2.7","665cb148a4fac709b6b9333a","63068110447ef1aaa9660816","665dad9d87077e2b88bdb562","S","A","0","1","f","","null","<div style=""width:150px;height:56px;font-size:30px;text-align:center;"">correct!</div>","null","","","","","","","","","","","","","",""
"","","","","","html-keyboard-response","50","123393","0.0-7.0-0.8","665cb148a4fac709b6b9333a","63068110447ef1aaa9660816","665dad9d87077e2b88bdb562","S","A","0","1","f","","null","<div style=""font-size:60px;"">+</div>","null","","","","","","","","","","","","","",""
"","","","","","noisyLetter","51","126247","0.0-7.0-1.8","665cb148a4fac709b6b9333a","63068110447ef1aaa9660816","665dad9d87077e2b88bdb562","S","A","0","1","f","","","","f","1869.5999999940395","","","0.3","0.35","false","test1","1","S","f","true","0.8425925925925926","928",""
"","","","","","html-keyboard-response","52","127248","0.0-7.0-2.8","665cb148a4fac709b6b9333a","63068110447ef1aaa9660816","665dad9d87077e2b88bdb562","S","A","0","1","f","","null","<div style=""width:150px;height:56px;font-size:30px;text-align:center;"">correct!</div>","null","","","","","","","","","","","","","",""
"","","","","","html-keyboard-response","53","127936","0.0-7.0-0.9","665cb148a4fac709b6b9333a","63068110447ef1aaa9660816","665dad9d87077e2b88bdb562","S","A","0","1","f","","null","<div style=""font-size:60px;"">+</div>","null","","","","","","","","","","","","","",""
"","","","","","noisyLetter","54","130476","0.0-7.0-1.9","665cb148a4fac709b6b9333a","63068110447ef1aaa9660816","665dad9d87077e2b88bdb562","S","A","0","1","f","","","","f","1598.0999999940395","","","0.3","0.1","false","test1","1","S","f","true","0.937037037037037","887",""
"","","","","","html-keyboard-response","55","131476","0.0-7.0-2.9","665cb148a4fac709b6b9333a","63068110447ef1aaa9660816","665dad9d87077e2b88bdb562","S","A","0","1","f","","null","<div style=""width:150px;height:56px;font-size:30px;text-align:center;"">correct!</div>","null","","","","","","","","","","","","","",""
"","","","","","html-keyboard-response","56","132325","0.0-7.0-0.10","665cb148a4fac709b6b9333a","63068110447ef1aaa9660816","665dad9d87077e2b88bdb562","S","A","0","1","f","","null","<div style=""font-size:60px;"">+</div>","null","","","","","","","","","","","","","",""
"","","","","","noisyLetter","57","134671","0.0-7.0-1.10","665cb148a4fac709b6b9333a","63068110447ef1aaa9660816","665dad9d87077e2b88bdb562","S","A","0","1","f","","","","g","1464.0999999940395","","","0.3","0.35","false","test1","0","S","g","true","0.7814814814814814","835.9000000059605",""
"","","","","","html-keyboard-response","58","135673","0.0-7.0-2.10","665cb148a4fac709b6b9333a","63068110447ef1aaa9660816","665dad9d87077e2b88bdb562","S","A","0","1","f","","null","<div style=""width:150px;height:56px;font-size:30px;text-align:center;"">correct!</div>","null","","","","","","","","","","","","","",""
"","","","","","html-keyboard-response","59","136588","0.0-7.0-0.11","665cb148a4fac709b6b9333a","63068110447ef1aaa9660816","665dad9d87077e2b88bdb562","S","A","0","1","f","","null","<div style=""font-size:60px;"">+</div>","null","","","","","","","","","","","","","",""
"","","","","","noisyLetter","60","139691","0.0-7.0-1.11","665cb148a4fac709b6b9333a","63068110447ef1aaa9660816","665dad9d87077e2b88bdb562","S","A","0","1","f","","","","g","2185.9000000059605","","","0.3","0.1","false","test1","0","S","g","true","1","875",""
"","","","","","html-keyboard-response","61","140693","0.0-7.0-2.11","665cb148a4fac709b6b9333a","63068110447ef1aaa9660816","665dad9d87077e2b88bdb562","S","A","0","1","f","","null","<div style=""width:150px;height:56px;font-size:30px;text-align:center;"">correct!</div>","null","","","","","","","","","","","","","",""
"","","","","","html-keyboard-response","62","141500","0.0-7.0-0.12","665cb148a4fac709b6b9333a","63068110447ef1aaa9660816","665dad9d87077e2b88bdb562","S","A","0","1","f","","null","<div style=""font-size:60px;"">+</div>","null","","","","","","","","","","","","","",""
"","","","","","noisyLetter","63","143983","0.0-7.0-1.12","665cb148a4fac709b6b9333a","63068110447ef1aaa9660816","665dad9d87077e2b88bdb562","S","A","0","1","f","","","","f","1784.3999999761581","","","0.3","0.1","false","test1","1","S","f","true","0.8222222222222222","650.1000000238419",""
"","","","","","html-keyboard-response","64","144984","0.0-7.0-2.12","665cb148a4fac709b6b9333a","63068110447ef1aaa9660816","665dad9d87077e2b88bdb562","S","A","0","1","f","","null","<div style=""width:150px;height:56px;font-size:30px;text-align:center;"">correct!</div>","null","","","","","","","","","","","","","",""
"","","","","","html-keyboard-response","65","145618","0.0-7.0-0.13","665cb148a4fac709b6b9333a","63068110447ef1aaa9660816","665dad9d87077e2b88bdb562","S","A","0","1","f","","null","<div style=""font-size:60px;"">+</div>","null","","","","","","","","","","","","","",""
"","","","","","noisyLetter","66","148525","0.0-7.0-1.13","665cb148a4fac709b6b9333a","63068110447ef1aaa9660816","665dad9d87077e2b88bdb562","S","A","0","1","f","","","","f","1650.199999988079","","","0.3","0.35","false","test1","1","S","f","true","0.8333333333333334","1181",""
"","","","","","html-keyboard-response","67","149525","0.0-7.0-2.13","665cb148a4fac709b6b9333a","63068110447ef1aaa9660816","665dad9d87077e2b88bdb562","S","A","0","1","f","","null","<div style=""width:150px;height:56px;font-size:30px;text-align:center;"">correct!</div>","null","","","","","","","","","","","","","",""
"","","","","","html-keyboard-response","68","150263","0.0-7.0-0.14","665cb148a4fac709b6b9333a","63068110447ef1aaa9660816","665dad9d87077e2b88bdb562","S","A","0","1","f","","null","<div style=""font-size:60px;"">+</div>","null","","","","","","","","","","","","","",""
"","","","","","noisyLetter","69","152615","0.0-7.0-1.14","665cb148a4fac709b6b9333a","63068110447ef1aaa9660816","665dad9d87077e2b88bdb562","S","A","0","1","f","","","","g","1461.2999999821186","","","0.3","0.1","false","test1","0","S","g","true","0.8055555555555556","825.9000000059605",""
"","","","","","html-keyboard-response","70","153617","0.0-7.0-2.14","665cb148a4fac709b6b9333a","63068110447ef1aaa9660816","665dad9d87077e2b88bdb562","S","A","0","1","f","","null","<div style=""width:150px;height:56px;font-size:30px;text-align:center;"">correct!</div>","null","","","","","","","","","","","","","",""
"","","","","","html-keyboard-response","71","154426","0.0-7.0-0.15","665cb148a4fac709b6b9333a","63068110447ef1aaa9660816","665dad9d87077e2b88bdb562","S","A","0","1","f","","null","<div style=""font-size:60px;"">+</div>","null","","","","","","","","","","","","","",""
"","","","","","noisyLetter","72","157213","0.0-7.0-1.15","665cb148a4fac709b6b9333a","63068110447ef1aaa9660816","665dad9d87077e2b88bdb562","S","A","0","1","f","","","","g","1995.7999999821186","","","0.3","0.35","false","test1","0","S","g","true","0.6425925925925926","745.9000000059605",""
"","","","","","html-keyboard-response","73","158213","0.0-7.0-2.15","665cb148a4fac709b6b9333a","63068110447ef1aaa9660816","665dad9d87077e2b88bdb562","S","A","0","1","f","","null","<div style=""width:150px;height:56px;font-size:30px;text-align:center;"">correct!</div>","null","","","","","","","","","","","","","",""
"","","","","","instructions","74","165629","0.0-8.0","665cb148a4fac709b6b9333a","63068110447ef1aaa9660816","665dad9d87077e2b88bdb562","S","A","0","1","f","[{""page_index"":0,""viewing_time"":7415}]","7416","","","","","","","","","","","","","","","",""
"","","","","","html-keyboard-response","75","166630","0.0-9.0-0.0","665cb148a4fac709b6b9333a","63068110447ef1aaa9660816","665dad9d87077e2b88bdb562","S","A","0","1","f","","null","<div style=""font-size:60px;"">+</div>","null","","","","","","","","","","","","","",""
"","","","","","noisyLetter","76","169990","0.0-9.0-1.0","665cb148a4fac709b6b9333a","63068110447ef1aaa9660816","665dad9d87077e2b88bdb562","S","A","0","1","f","","","","f","2251.5","","","0.3","0.1","false","test1","1","S","f","true","0.8388888888888889","1020.9000000059605",""
"","","","","","html-keyboard-response","77","170991","0.0-9.0-2.0","665cb148a4fac709b6b9333a","63068110447ef1aaa9660816","665dad9d87077e2b88bdb562","S","A","0","1","f","","null","<div style=""width:150px;height:56px;font-size:30px;text-align:center;"">correct!</div>","null","","","","","","","","","","","","","",""
"","","","","","html-keyboard-response","78","171504","0.0-9.0-0.1","665cb148a4fac709b6b9333a","63068110447ef1aaa9660816","665dad9d87077e2b88bdb562","S","A","0","1","f","","null","<div style=""font-size:60px;"">+</div>","null","","","","","","","","","","","","","",""
"","","","","","noisyLetter","79","173727","0.0-9.0-1.1","665cb148a4fac709b6b9333a","63068110447ef1aaa9660816","665dad9d87077e2b88bdb562","S","A","0","1","f","","","","g","1372.5","","","0.3","0.1","false","test1","0","S","g","true","1","786",""
