"success","timeout","failed_images","failed_audio","failed_video","trial_type","trial_index","time_elapsed","internal_node_id","STUDY_ID","PROLIFIC_PID","SESSION_ID","first_target","second_target","practice_loops","comprehension_visits","presence_key","view_history","rt","stimulus","response","RT","context_string","context_img","max_p","hide_proportion","descend","test_part","present","target","correct_response","correct","confidence","confidence_RT","question_order"
"true","false","[]","[]","[]","preload","0","223","0.0-0.0","664b8ef55422af2817ddcd59","5c492e3e4c3dc50001fbdb20","664b9d91a0d2bb7f8a60cdb5","S","A","0","1","f","","","","","","","","","","","","","","","","","",""
"true","","","","","fullscreen","1","3027","0.0-1.0","664b8ef55422af2817ddcd59","5c492e3e4c3dc50001fbdb20","664b9d91a0d2bb7f8a60cdb5","S","A","0","1","f","","","","","","","","","","","","","","","","","",""
"","","","","","instructions","2","20136","0.0-2.0","664b8ef55422af2817ddcd59","5c492e3e4c3dc50001fbdb20","664b9d91a0d2bb7f8a60cdb5","S","A","0","1","f","[{""page_index"":0,""viewing_time"":4516},{""page_index"":1,""viewing_time"":3703},{""page_index"":2,""viewing_time"":8890}]","17110","","","","","","","","","","","","","","","",""
"","","","","","html-keyboard-response","3","20680","0.0-3.0-1.0-0.0","664b8ef55422af2817ddcd59","5c492e3e4c3dc50001fbdb20","664b9d91a0d2bb7f8a60cdb5","S","A","0","1","f","","null","<div style=""font-size:60px;"">+</div>","null","","","","","","","","","","","","","",""
"","","","","","noisyLetter","4","26504","0.0-3.0-1.0-1.0","664b8ef55422af2817ddcd59","5c492e3e4c3dc50001fbdb20","664b9d91a0d2bb7f8a60cdb5","S","A","0","1","f","","","","g","5425.199999988079","","","0.35","0","false","practice","0","S","g","true","","",""
"","","","","","html-keyboard-response","5","28007","0.0-3.0-1.0-2.0","664b8ef55422af2817ddcd59","5c492e3e4c3dc50001fbdb20","664b9d91a0d2bb7f8a60cdb5","S","A","0","1","f","","null","<div style=""width:300px;height:56px;border:0px;font-size:30px;text-align:center"">Correct! This was just noise.</div>","null","","","","","","","","","","","","","",""
"","","","","","html-keyboard-response","6","28849","0.0-3.0-1.0-0.1","664b8ef55422af2817ddcd59","5c492e3e4c3dc50001fbdb20","664b9d91a0d2bb7f8a60cdb5","S","A","0","1","f","","null","<div style=""font-size:60px;"">+</div>","null","","","","","","","","","","","","","",""
"","","","","","noisyLetter","7","31988","0.0-3.0-1.0-1.1","664b8ef55422af2817ddcd59","5c492e3e4c3dc50001fbdb20","664b9d91a0d2bb7f8a60cdb5","S","A","0","1","f","","","","f","2782","","","0.35","0","false","practice","1","S","f","true","","",""
"","","","","","html-keyboard-response","8","33490","0.0-3.0-1.0-2.1","664b8ef55422af2817ddcd59","5c492e3e4c3dc50001fbdb20","664b9d91a0d2bb7f8a60cdb5","S","A","0","1","f","","null","<div style=""width:300px;height:56px;font-size:30px;text-align:center;"">Correct! You detected the letter.</div>","null","","","","","","","","","","","","","",""
"","","","","","html-keyboard-response","9","34329","0.0-3.0-1.0-0.2","664b8ef55422af2817ddcd59","5c492e3e4c3dc50001fbdb20","664b9d91a0d2bb7f8a60cdb5","S","A","0","1","f","","null","<div style=""font-size:60px;"">+</div>","null","","","","","","","","","","","","","",""
"","","","","","noisyLetter","10","37254","0.0-3.0-1.0-1.2","664b8ef55422af2817ddcd59","5c492e3e4c3dc50001fbdb20","664b9d91a0d2bb7f8a60cdb5","S","A","0","1","f","","","","g","2539.300000011921","","","0.35","0","false","practice","0","S","g","true","","",""
"","","","","","html-keyboard-response","11","38756","0.0-3.0-1.0-2.2","664b8ef55422af2817ddcd59","5c492e3e4c3dc50001fbdb20","664b9d91a0d2bb7f8a60cdb5","S","A","0","1","f","","null","<div style=""width:300px;height:56px;border:0px;font-size:30px;text-align:center"">Correct! This was just noise.</div>","null","","","","","","","","","","","","","",""
"","","","","","html-keyboard-response","12","39311","0.0-3.0-1.0-0.3","664b8ef55422af2817ddcd59","5c492e3e4c3dc50001fbdb20","664b9d91a0d2bb7f8a60cdb5","S","A","0","1","f","","null","<div style=""font-size:60px;"">+</div>","null","","","","","","","","","","","","","",""
"","","","","","noisyLetter","13","41371","0.0-3.0-1.0-1.3","664b8ef55422af2817ddcd59","5c492e3e4c3dc50001fbdb20","664b9d91a0d2bb7f8a60cdb5","S","A","0","1","f","","","","f","1713.5","","","0.35","0","false","practice","1","S","f","true","","",""
"","","","","","html-keyboard-response","14","42871","0.0-3.0-1.0-2.3","664b8ef55422af2817ddcd59","5c492e3e4c3dc50001fbdb20","664b9d91a0d2bb7f8a60cdb5","S","A","0","1","f","","null","<div style=""width:300px;height:56px;font-size:30px;text-align:center;"">Correct! You detected the letter.</div>","null","","","","","","","","","","","","","",""
"","","","","","instructions","15","47454","0.0-4.0","664b8ef55422af2817ddcd59","5c492e3e4c3dc50001fbdb20","664b9d91a0d2bb7f8a60cdb5","S","A","0","1","f","[{""page_index"":0,""viewing_time"":3263},{""page_index"":1,""viewing_time"":1317}]","4580","","","","","","","","","","","","","","","",""
"","","","","","html-keyboard-response","16","48363","0.0-5.0-1.0-0.0-0.0","664b8ef55422af2817ddcd59","5c492e3e4c3dc50001fbdb20","664b9d91a0d2bb7f8a60cdb5","S","A","0","1","f","","null","<div style=""font-size:60px;"">+</div>","null","","","","","","","","","","","","","",""
"","","","","","noisyLetter","17","54554","0.0-5.0-1.0-0.0-1.0","664b8ef55422af2817ddcd59","5c492e3e4c3dc50001fbdb20","664b9d91a0d2bb7f8a60cdb5","S","A","0","1","f","","","","g","2758.900000035763","","","0.35","0","false","practice","0","S","g","true","0.35","3256.7999999523163",""
"","","","","","html-keyboard-response","18","55205","0.0-5.0-1.0-0.0-0.1","664b8ef55422af2817ddcd59","5c492e3e4c3dc50001fbdb20","664b9d91a0d2bb7f8a60cdb5","S","A","0","1","f","","null","<div style=""font-size:60px;"">+</div>","null","","","","","","","","","","","","","",""
"","","","","","noisyLetter","19","59870","0.0-5.0-1.0-0.0-1.1","664b8ef55422af2817ddcd59","5c492e3e4c3dc50001fbdb20","664b9d91a0d2bb7f8a60cdb5","S","A","0","1","f","","","","f","2757","","","0.35","0","false","practice","1","S","f","true","0.6481481481481481","1767.199999988079",""
"","","","","","html-keyboard-response","20","60519","0.0-5.0-1.0-0.0-0.2","664b8ef55422af2817ddcd59","5c492e3e4c3dc50001fbdb20","664b9d91a0d2bb7f8a60cdb5","S","A","0","1","f","","null","<div style=""font-size:60px;"">+</div>","null","","","","","","","","","","","","","",""
"","","","","","noisyLetter","21","65855","0.0-5.0-1.0-0.0-1.2","664b8ef55422af2817ddcd59","5c492e3e4c3dc50001fbdb20","664b9d91a0d2bb7f8a60cdb5","S","A","0","1","f","","","","g","3751.199999988079","","","0.35","0","false","practice","0","S","g","true","0.3407407407407408","1417",""
"","","","","","html-keyboard-response","22","66704","0.0-5.0-1.0-0.0-0.3","664b8ef55422af2817ddcd59","5c492e3e4c3dc50001fbdb20","664b9d91a0d2bb7f8a60cdb5","S","A","0","1","f","","null","<div style=""font-size:60px;"">+</div>","null","","","","","","","","","","","","","",""
"","","","","","noisyLetter","23","71505","0.0-5.0-1.0-0.0-1.3","664b8ef55422af2817ddcd59","5c492e3e4c3dc50001fbdb20","664b9d91a0d2bb7f8a60cdb5","S","A","0","1","f","","","","f","3101.5","","","0.35","0","false","practice","1","S","f","true","0.34444444444444444","1530.6000000238419",""
"","","","","","survey-multi-choice","24","84649","0.0-5.0-1.0-1.0","664b8ef55422af2817ddcd59","5c492e3e4c3dc50001fbdb20","664b9d91a0d2bb7f8a60cdb5","S","A","0","1","f","","13143","","{""multichoice_confidence"":""2. very confident that there was no letter in the noise.""}","","","","","","","","","","","","","","[0]"
"","","","","","instructions","25","94039","0.0-6.0","664b8ef55422af2817ddcd59","5c492e3e4c3dc50001fbdb20","664b9d91a0d2bb7f8a60cdb5","S","A","0","1","f","[{""page_index"":0,""viewing_time"":5626},{""page_index"":1,""viewing_time"":3763}]","9389","","","","","","","","","","","","","","","",""
"","","","","","html-keyboard-response","26","94556","0.0-7.0-0.0","664b8ef55422af2817ddcd59","5c492e3e4c3dc50001fbdb20","664b9d91a0d2bb7f8a60cdb5","S","A","0","1","f","","null","<div style=""font-size:60px;"">+</div>","null","","","","","","","","","","","","","",""
"","","","","","noisyLetter","27","102105","0.0-7.0-1.0","664b8ef55422af2817ddcd59","5c492e3e4c3dc50001fbdb20","664b9d91a0d2bb7f8a60cdb5","S","A","0","1","f","","","","f","5051.899999976158","","","0.3","0.1","false","test1","1","S","f","true","0.41666666666666663","2332.5",""
"","","","","","html-keyboard-response","28","103106","0.0-7.0-2.0","664b8ef55422af2817ddcd59","5c492e3e4c3dc50001fbdb20","664b9d91a0d2bb7f8a60cdb5","S","A","0","1","f","","null","<div style=""width:150px;height:56px;font-size:30px;text-align:center;"">correct!</div>","null","","","","","","","","","","","","","",""
"","","","","","html-keyboard-response","29","103947","0.0-7.0-0.1","664b8ef55422af2817ddcd59","5c492e3e4c3dc50001fbdb20","664b9d91a0d2bb7f8a60cdb5","S","A","0","1","f","","null","<div style=""font-size:60px;"">+</div>","null","","","","","","","","","","","","","",""
"","","","","","noisyLetter","30","111288","0.0-7.0-1.1","664b8ef55422af2817ddcd59","5c492e3e4c3dc50001fbdb20","664b9d91a0d2bb7f8a60cdb5","S","A","0","1","f","","","","g","5492.100000023842","","","0.3","0.35","false","test1","1","S","f","false","0.4185185185185185","1675.3999999761581",""
"","","","","","html-keyboard-response","31","113788","0.0-7.0-2.1","664b8ef55422af2817ddcd59","5c492e3e4c3dc50001fbdb20","664b9d91a0d2bb7f8a60cdb5","S","A","0","1","f","","null","<div style=""width:150px;height:56px;border:0px;font-size:30px;text-align:center"">wrong.</div>","null","","","","","","","","","","","","","",""
"","","","","","html-keyboard-response","32","114711","0.0-7.0-0.2","664b8ef55422af2817ddcd59","5c492e3e4c3dc50001fbdb20","664b9d91a0d2bb7f8a60cdb5","S","A","0","1","f","","null","<div style=""font-size:60px;"">+</div>","null","","","","","","","","","","","","","",""
"","","","","","noisyLetter","33","121788","0.0-7.0-1.2","664b8ef55422af2817ddcd59","5c492e3e4c3dc50001fbdb20","664b9d91a0d2bb7f8a60cdb5","S","A","0","1","f","","","","g","5670.400000035763","","","0.3","0.1","false","test1","0","S","g","true","0.4037037037037037","1211.5999999642372",""
"","","","","","html-keyboard-response","34","122789","0.0-7.0-2.2","664b8ef55422af2817ddcd59","5c492e3e4c3dc50001fbdb20","664b9d91a0d2bb7f8a60cdb5","S","A","0","1","f","","null","<div style=""width:150px;height:56px;font-size:30px;text-align:center;"">correct!</div>","null","","","","","","","","","","","","","",""
"","","","","","html-keyboard-response","35","123331","0.0-7.0-0.3","664b8ef55422af2817ddcd59","5c492e3e4c3dc50001fbdb20","664b9d91a0d2bb7f8a60cdb5","S","A","0","1","f","","null","<div style=""font-size:60px;"">+</div>","null","","","","","","","","","","","","","",""
"","","","","","noisyLetter","36","129604","0.0-7.0-1.3","664b8ef55422af2817ddcd59","5c492e3e4c3dc50001fbdb20","664b9d91a0d2bb7f8a60cdb5","S","A","0","1","f","","","","f","5044.900000035763","","","0.3","0.35","false","test1","0","S","g","false","0.4629629629629629","1032.5999999642372",""
"","","","","","html-keyboard-response","37","132106","0.0-7.0-2.3","664b8ef55422af2817ddcd59","5c492e3e4c3dc50001fbdb20","664b9d91a0d2bb7f8a60cdb5","S","A","0","1","f","","null","<div style=""width:150px;height:56px;border:0px;font-size:30px;text-align:center"">wrong.</div>","null","","","","","","","","","","","","","",""
"","","","","","html-keyboard-response","38","133093","0.0-7.0-0.4","664b8ef55422af2817ddcd59","5c492e3e4c3dc50001fbdb20","664b9d91a0d2bb7f8a60cdb5","S","A","0","1","f","","null","<div style=""font-size:60px;"">+</div>","null","","","","","","","","","","","","","",""
"","","","","","noisyLetter","39","138554","0.0-7.0-1.4","664b8ef55422af2817ddcd59","5c492e3e4c3dc50001fbdb20","664b9d91a0d2bb7f8a60cdb5","S","A","0","1","f","","","","f","4189.800000011921","","","0.3","0.35","false","test1","1","S","f","true","0.5092592592592593","1125.3999999761581",""
"","","","","","html-keyboard-response","40","139556","0.0-7.0-2.4","664b8ef55422af2817ddcd59","5c492e3e4c3dc50001fbdb20","664b9d91a0d2bb7f8a60cdb5","S","A","0","1","f","","null","<div style=""width:150px;height:56px;font-size:30px;text-align:center;"">correct!</div>","null","","","","","","","","","","","","","",""
"","","","","","html-keyboard-response","41","140143","0.0-7.0-0.5","664b8ef55422af2817ddcd59","5c492e3e4c3dc50001fbdb20","664b9d91a0d2bb7f8a60cdb5","S","A","0","1","f","","null","<div style=""font-size:60px;"">+</div>","null","","","","","","","","","","","","","",""
"","","","","","noisyLetter","42","145222","0.0-7.0-1.5","664b8ef55422af2817ddcd59","5c492e3e4c3dc50001fbdb20","664b9d91a0d2bb7f8a60cdb5","S","A","0","1","f","","","","f","3446.099999964237","","","0.3","0.1","false","test1","0","S","g","false","0.5703703703703704","1457.199999988079",""
"","","","","","html-keyboard-response","43","147723","0.0-7.0-2.5","664b8ef55422af2817ddcd59","5c492e3e4c3dc50001fbdb20","664b9d91a0d2bb7f8a60cdb5","S","A","0","1","f","","null","<div style=""width:150px;height:56px;border:0px;font-size:30px;text-align:center"">wrong.</div>","null","","","","","","","","","","","","","",""
"","","","","","html-keyboard-response","44","148499","0.0-7.0-0.6","664b8ef55422af2817ddcd59","5c492e3e4c3dc50001fbdb20","664b9d91a0d2bb7f8a60cdb5","S","A","0","1","f","","null","<div style=""font-size:60px;"">+</div>","null","","","","","","","","","","","","","",""
"","","","","","noisyLetter","45","152704","0.0-7.0-1.6","664b8ef55422af2817ddcd59","5c492e3e4c3dc50001fbdb20","664b9d91a0d2bb7f8a60cdb5","S","A","0","1","f","","","","f","2755.899999976158","","","0.3","0.1","false","test1","1","S","f","true","0.5388888888888889","1270.800000011921",""
"","","","","","html-keyboard-response","46","153720","0.0-7.0-2.6","664b8ef55422af2817ddcd59","5c492e3e4c3dc50001fbdb20","664b9d91a0d2bb7f8a60cdb5","S","A","0","1","f","","null","<div style=""width:150px;height:56px;font-size:30px;text-align:center;"">correct!</div>","null","","","","","","","","","","","","","",""
"","","","","","html-keyboard-response","47","154333","0.0-7.0-0.7","664b8ef55422af2817ddcd59","5c492e3e4c3dc50001fbdb20","664b9d91a0d2bb7f8a60cdb5","S","A","0","1","f","","null","<div style=""font-size:60px;"">+</div>","null","","","","","","","","","","","","","",""
"","","","","","noisyLetter","48","159005","0.0-7.0-1.7","664b8ef55422af2817ddcd59","5c492e3e4c3dc50001fbdb20","664b9d91a0d2bb7f8a60cdb5","S","A","0","1","f","","","","g","3302.899999976158","","","0.3","0.35","false","test1","0","S","g","true","0.6907407407407408","1185.6000000238419",""
"","","","","","html-keyboard-response","49","160006","0.0-7.0-2.7","664b8ef55422af2817ddcd59","5c492e3e4c3dc50001fbdb20","664b9d91a0d2bb7f8a60cdb5","S","A","0","1","f","","null","<div style=""width:150px;height:56px;font-size:30px;text-align:center;"">correct!</div>","null","","","","","","","","","","","","","",""
"","","","","","html-keyboard-response","50","160660","0.0-7.0-0.8","664b8ef55422af2817ddcd59","5c492e3e4c3dc50001fbdb20","664b9d91a0d2bb7f8a60cdb5","S","A","0","1","f","","null","<div style=""font-size:60px;"">+</div>","null","","","","","","","","","","","","","",""
"","","","","","noisyLetter","51","166055","0.0-7.0-1.8","664b8ef55422af2817ddcd59","5c492e3e4c3dc50001fbdb20","664b9d91a0d2bb7f8a60cdb5","S","A","0","1","f","","","","g","4384","","","0.3","0.1","false","test1","1","S","f","false","0.6444444444444444","832.5",""
"","","","","","html-keyboard-response","52","168556","0.0-7.0-2.8","664b8ef55422af2817ddcd59","5c492e3e4c3dc50001fbdb20","664b9d91a0d2bb7f8a60cdb5","S","A","0","1","f","","null","<div style=""width:150px;height:56px;border:0px;font-size:30px;text-align:center"">wrong.</div>","null","","","","","","","","","","","","","",""
"","","","","","html-keyboard-response","53","169488","0.0-7.0-0.9","664b8ef55422af2817ddcd59","5c492e3e4c3dc50001fbdb20","664b9d91a0d2bb7f8a60cdb5","S","A","0","1","f","","null","<div style=""font-size:60px;"">+</div>","null","","","","","","","","","","","","","",""
"","","","","","noisyLetter","54","173954","0.0-7.0-1.9","664b8ef55422af2817ddcd59","5c492e3e4c3dc50001fbdb20","664b9d91a0d2bb7f8a60cdb5","S","A","0","1","f","","","","g","3226.600000023842","","","0.3","0.35","false","test1","0","S","g","true","0.5018518518518518","1056.5",""
"","","","","","html-keyboard-response","55","174956","0.0-7.0-2.9","664b8ef55422af2817ddcd59","5c492e3e4c3dc50001fbdb20","664b9d91a0d2bb7f8a60cdb5","S","A","0","1","f","","null","<div style=""width:150px;height:56px;font-size:30px;text-align:center;"">correct!</div>","null","","","","","","","","","","","","","",""
"","","","","","html-keyboard-response","56","175474","0.0-7.0-0.10","664b8ef55422af2817ddcd59","5c492e3e4c3dc50001fbdb20","664b9d91a0d2bb7f8a60cdb5","S","A","0","1","f","","null","<div style=""font-size:60px;"">+</div>","null","","","","","","","","","","","","","",""
"","","","","","noisyLetter","57","179871","0.0-7.0-1.10","664b8ef55422af2817ddcd59","5c492e3e4c3dc50001fbdb20","664b9d91a0d2bb7f8a60cdb5","S","A","0","1","f","","","","g","3235.600000023842","","","0.3","0.1","false","test1","0","S","g","true","0.7","998.1999999880791",""
"","","","","","html-keyboard-response","58","180873","0.0-7.0-2.10","664b8ef55422af2817ddcd59","5c492e3e4c3dc50001fbdb20","664b9d91a0d2bb7f8a60cdb5","S","A","0","1","f","","null","<div style=""width:150px;height:56px;font-size:30px;text-align:center;"">correct!</div>","null","","","","","","","","","","","","","",""
"","","","","","html-keyboard-response","59","181503","0.0-7.0-0.11","664b8ef55422af2817ddcd59","5c492e3e4c3dc50001fbdb20","664b9d91a0d2bb7f8a60cdb5","S","A","0","1","f","","null","<div style=""font-size:60px;"">+</div>","null","","","","","","","","","","","","","",""
"","","","","","noisyLetter","60","186772","0.0-7.0-1.11","664b8ef55422af2817ddcd59","5c492e3e4c3dc50001fbdb20","664b9d91a0d2bb7f8a60cdb5","S","A","0","1","f","","","","f","3790.100000023842","","","0.3","0.35","false","test1","1","S","f","true","0.42407407407407405","1300.5",""
"","","","","","html-keyboard-response","61","187773","0.0-7.0-2.11","664b8ef55422af2817ddcd59","5c492e3e4c3dc50001fbdb20","664b9d91a0d2bb7f8a60cdb5","S","A","0","1","f","","null","<div style=""width:150px;height:56px;font-size:30px;text-align:center;"">correct!</div>","null","","","","","","","","","","","","","",""
"","","","","","html-keyboard-response","62","188624","0.0-7.0-0.12","664b8ef55422af2817ddcd59","5c492e3e4c3dc50001fbdb20","664b9d91a0d2bb7f8a60cdb5","S","A","0","1","f","","null","<div style=""font-size:60px;"">+</div>","null","","","","","","","","","","","","","",""
"","","","","","noisyLetter","63","194171","0.0-7.0-1.12","664b8ef55422af2817ddcd59","5c492e3e4c3dc50001fbdb20","664b9d91a0d2bb7f8a60cdb5","S","A","0","1","f","","","","g","4182.299999952316","","","0.3","0.1","false","test1","0","S","g","true","0.8166666666666667","1192.4000000357628",""
"","","","","","html-keyboard-response","64","195173","0.0-7.0-2.12","664b8ef55422af2817ddcd59","5c492e3e4c3dc50001fbdb20","664b9d91a0d2bb7f8a60cdb5","S","A","0","1","f","","null","<div style=""width:150px;height:56px;font-size:30px;text-align:center;"">correct!</div>","null","","","","","","","","","","","","","",""
"","","","","","html-keyboard-response","65","195871","0.0-7.0-0.13","664b8ef55422af2817ddcd59","5c492e3e4c3dc50001fbdb20","664b9d91a0d2bb7f8a60cdb5","S","A","0","1","f","","null","<div style=""font-size:60px;"">+</div>","null","","","","","","","","","","","","","",""
"","","","","","noisyLetter","66","200872","0.0-7.0-1.13","664b8ef55422af2817ddcd59","5c492e3e4c3dc50001fbdb20","664b9d91a0d2bb7f8a60cdb5","S","A","0","1","f","","","","g","3619.399999976158","","","0.3","0.1","false","test1","1","S","f","false","0.5222222222222221","1193.1000000238419",""
"","","","","","html-keyboard-response","67","203373","0.0-7.0-2.13","664b8ef55422af2817ddcd59","5c492e3e4c3dc50001fbdb20","664b9d91a0d2bb7f8a60cdb5","S","A","0","1","f","","null","<div style=""width:150px;height:56px;border:0px;font-size:30px;text-align:center"">wrong.</div>","null","","","","","","","","","","","","","",""
"","","","","","html-keyboard-response","68","204365","0.0-7.0-0.14","664b8ef55422af2817ddcd59","5c492e3e4c3dc50001fbdb20","664b9d91a0d2bb7f8a60cdb5","S","A","0","1","f","","null","<div style=""font-size:60px;"">+</div>","null","","","","","","","","","","","","","",""
"","","","","","noisyLetter","69","207838","0.0-7.0-1.14","664b8ef55422af2817ddcd59","5c492e3e4c3dc50001fbdb20","664b9d91a0d2bb7f8a60cdb5","S","A","0","1","f","","","","g","2576","","","0.3","0.35","false","test1","0","S","g","true","0.7314814814814814","751.6000000238419",""
"","","","","","html-keyboard-response","70","208839","0.0-7.0-2.14","664b8ef55422af2817ddcd59","5c492e3e4c3dc50001fbdb20","664b9d91a0d2bb7f8a60cdb5","S","A","0","1","f","","null","<div style=""width:150px;height:56px;font-size:30px;text-align:center;"">correct!</div>","null","","","","","","","","","","","","","",""
"","","","","","html-keyboard-response","71","209756","0.0-7.0-0.15","664b8ef55422af2817ddcd59","5c492e3e4c3dc50001fbdb20","664b9d91a0d2bb7f8a60cdb5","S","A","0","1","f","","null","<div style=""font-size:60px;"">+</div>","null","","","","","","","","","","","","","",""
"","","","","","noisyLetter","72","214421","0.0-7.0-1.15","664b8ef55422af2817ddcd59","5c492e3e4c3dc50001fbdb20","664b9d91a0d2bb7f8a60cdb5","S","A","0","1","f","","","","g","3592.199999988079","","","0.3","0.35","false","test1","1","S","f","false","0.24259259259259258","906.1999999880791",""
"","","","","","html-keyboard-response","73","216922","0.0-7.0-2.15","664b8ef55422af2817ddcd59","5c492e3e4c3dc50001fbdb20","664b9d91a0d2bb7f8a60cdb5","S","A","0","1","f","","null","<div style=""width:150px;height:56px;border:0px;font-size:30px;text-align:center"">wrong.</div>","null","","","","","","","","","","","","","",""
"","","","","","instructions","74","223909","0.0-8.0","664b8ef55422af2817ddcd59","5c492e3e4c3dc50001fbdb20","664b9d91a0d2bb7f8a60cdb5","S","A","0","1","f","[{""page_index"":0,""viewing_time"":6986}]","6986","","","","","","","","","","","","","","","",""
"","","","","","html-keyboard-response","75","224489","0.0-9.0-0.0","664b8ef55422af2817ddcd59","5c492e3e4c3dc50001fbdb20","664b9d91a0d2bb7f8a60cdb5","S","A","0","1","f","","null","<div style=""font-size:60px;"">+</div>","null","","","","","","","","","","","","","",""
"","","","","","noisyLetter","76","229171","0.0-9.0-1.0","664b8ef55422af2817ddcd59","5c492e3e4c3dc50001fbdb20","664b9d91a0d2bb7f8a60cdb5","S","A","0","1","f","","","","g","2815.5","","","0.3","0.35","false","test1","0","S","g","true","0.22592592592592597","1665.3999999761581",""
"","","","","","html-keyboard-response","77","230172","0.0-9.0-2.0","664b8ef55422af2817ddcd59","5c492e3e4c3dc50001fbdb20","664b9d91a0d2bb7f8a60cdb5","S","A","0","1","f","","null","<div style=""width:150px;height:56px;font-size:30px;text-align:center;"">correct!</div>","null","","","","","","","","","","","","","",""
"","","","","","html-keyboard-response","78","231067","0.0-9.0-0.1","664b8ef55422af2817ddcd59","5c492e3e4c3dc50001fbdb20","664b9d91a0d2bb7f8a60cdb5","S","A","0","1","f","","null","<div style=""font-size:60px;"">+</div>","null","","","","","","","","","","","","","",""
"","","","","","noisyLetter","79","235205","0.0-9.0-1.1","664b8ef55422af2817ddcd59","5c492e3e4c3dc50001fbdb20","664b9d91a0d2bb7f8a60cdb5","S","A","0","1","f","","","","g","2752.7000000476837","","","0.3","0.1","false","test1","0","S","g","true","0.7259259259259259","1243.5999999642372",""
"","","","","","html-keyboard-response","80","236206","0.0-9.0-2.1","664b8ef55422af2817ddcd59","5c492e3e4c3dc50001fbdb20","664b9d91a0d2bb7f8a60cdb5","S","A","0","1","f","","null","<div style=""width:150px;height:56px;font-size:30px;text-align:center;"">correct!</div>","null","","","","","","","","","","","","","",""
"","","","","","html-keyboard-response","81","236736","0.0-9.0-0.2","664b8ef55422af2817ddcd59","5c492e3e4c3dc50001fbdb20","664b9d91a0d2bb7f8a60cdb5","S","A","0","1","f","","null","<div style=""font-size:60px;"">+</div>","null","","","","","","","","","","","","","",""
"","","","","","noisyLetter","82","240138","0.0-9.0-1.2","664b8ef55422af2817ddcd59","5c492e3e4c3dc50001fbdb20","664b9d91a0d2bb7f8a60cdb5","S","A","0","1","f","","","","g","2209.600000023842","","","0.3","0.35","false","test1","1","S","f","false","0.5833333333333333","1036.5",""
"","","","","","html-keyboard-response","83","242639","0.0-9.0-2.2","664b8ef55422af2817ddcd59","5c492e3e4c3dc50001fbdb20","664b9d91a0d2bb7f8a60cdb5","S","A","0","1","f","","null","<div style=""width:150px;height:56px;border:0px;font-size:30px;text-align:center"">wrong.</div>","null","","","","","","","","","","","","","",""
"","","","","","html-keyboard-response","84","243639","0.0-9.0-0.3","664b8ef55422af2817ddcd59","5c492e3e4c3dc50001fbdb20","664b9d91a0d2bb7f8a60cdb5","S","A","0","1","f","","null","<div style=""font-size:60px;"">+</div>","null","","","","","","","","","","","","","",""
"","","","","","noisyLetter","85","247438","0.0-9.0-1.3","664b8ef55422af2817ddcd59","5c492e3e4c3dc50001fbdb20","664b9d91a0d2bb7f8a60cdb5","S","A","0","1","f","","","","f","2272.899999976158","","","0.3","0.1","false","test1","1","S","f","true","0.4277777777777778","1384.5",""
"","","","","","html-keyboard-response","86","248439","0.0-9.0-2.3","664b8ef55422af2817ddcd59","5c492e3e4c3dc50001fbdb20","664b9d91a0d2bb7f8a60cdb5","S","A","0","1","f","","null","<div style=""width:150px;height:56px;font-size:30px;text-align:center;"">correct!</div>","null","","","","","","","","","","","","","",""
"","","","","","html-keyboard-response","87","249370","0.0-9.0-0.4","664b8ef55422af2817ddcd59","5c492e3e4c3dc50001fbdb20","664b9d91a0d2bb7f8a60cdb5","S","A","0","1","f","","null","<div style=""font-size:60px;"">+</div>","null","","","","","","","","","","","","","",""
"","","","","","noisyLetter","88","254038","0.0-9.0-1.4","664b8ef55422af2817ddcd59","5c492e3e4c3dc50001fbdb20","664b9d91a0d2bb7f8a60cdb5","S","A","0","1","f","","","","g","3455.099999964237","","","0.3","0.35","false","test1","1","S","f","false","0.6592592592592592","1063",""
"","","","","","html-keyboard-response","89","256539","0.0-9.0-2.4","664b8ef55422af2817ddcd59","5c492e3e4c3dc50001fbdb20","664b9d91a0d2bb7f8a60cdb5","S","A","0","1","f","","null","<div style=""width:150px;height:56px;border:0px;font-size:30px;text-align:center"">wrong.</div>","null","","","","","","","","","","","","","",""
"","","","","","html-keyboard-response","90","257403","0.0-9.0-0.5","664b8ef55422af2817ddcd59","5c492e3e4c3dc50001fbdb20","664b9d91a0d2bb7f8a60cdb5","S","A","0","1","f","","null","<div style=""font-size:60px;"">+</div>","null","","","","","","","","","","","","","",""
"","","","","","noisyLetter","91","261337","0.0-9.0-1.5","664b8ef55422af2817ddcd59","5c492e3e4c3dc50001fbdb20","664b9d91a0d2bb7f8a60cdb5","S","A","0","1","f","","","","g","2755.100000023842","","","0.3","0.1","false","test1","1","S","f","false","0.3907407407407407","1012",""
"","","","","","html-keyboard-response","92","263839","0.0-9.0-2.5","664b8ef55422af2817ddcd59","5c492e3e4c3dc50001fbdb20","664b9d91a0d2bb7f8a60cdb5","S","A","0","1","f","","null","<div style=""width:150px;height:56px;border:0px;font-size:30px;text-align:center"">wrong.</div>","null","","","","","","","","","","","","","",""
"","","","","","html-keyboard-response","93","264803","0.0-9.0-0.6","664b8ef55422af2817ddcd59","5c492e3e4c3dc50001fbdb20","664b9d91a0d2bb7f8a60cdb5","S","A","0","1","f","","null","<div style=""font-size:60px;"">+</div>","null","","","","","","","","","","","","","",""
"","","","","","noisyLetter","94","270071","0.0-9.0-1.6","664b8ef55422af2817ddcd59","5c492e3e4c3dc50001fbdb20","664b9d91a0d2bb7f8a60cdb5","S","A","0","1","f","","","","g","4098.699999988079","","","0.3","0.1","false","test1","0","S","g","true","0.5277777777777778","987.3000000119209",""
"","","","","","html-keyboard-response","95","271072","0.0-9.0-2.6","664b8ef55422af2817ddcd59","5c492e3e4c3dc50001fbdb20","664b9d91a0d2bb7f8a60cdb5","S","A","0","1","f","","null","<div style=""width:150px;height:56px;font-size:30px;text-align:center;"">correct!</div>","null","","","","","","","","","","","","","",""
"","","","","","html-keyboard-response","96","271668","0.0-9.0-0.7","664b8ef55422af2817ddcd59","5c492e3e4c3dc50001fbdb20","664b9d91a0d2bb7f8a60cdb5","S","A","0","1","f","","null","<div style=""font-size:60px;"">+</div>","null","","","","","","","","","","","","","",""
"","","","","","noisyLetter","97","275205","0.0-9.0-1.7","664b8ef55422af2817ddcd59","5c492e3e4c3dc50001fbdb20","664b9d91a0d2bb7f8a60cdb5","S","A","0","1","f","","","","f","2137.800000011921","","","0.3","0.35","false","test1","0","S","g","false","0.5703703703703704","1254.6000000238419",""
"","","","","","html-keyboard-response","98","277706","0.0-9.0-2.7","664b8ef55422af2817ddcd59","5c492e3e4c3dc50001fbdb20","664b9d91a0d2bb7f8a60cdb5","S","A","0","1","f","","null","<div style=""width:150px;height:56px;border:0px;font-size:30px;text-align:center"">wrong.</div>","null","","","","","","","","","","","","","",""
"","","","","","html-keyboard-response","99","278478","0.0-9.0-0.8","664b8ef55422af2817ddcd59","5c492e3e4c3dc50001fbdb20","664b9d91a0d2bb7f8a60cdb5","S","A","0","1","f","","null","<div style=""font-size:60px;"">+</div>","null","","","","","","","","","","","","","",""
"","","","","","noisyLetter","100","282805","0.0-9.0-1.8","664b8ef55422af2817ddcd59","5c492e3e4c3dc50001fbdb20","664b9d91a0d2bb7f8a60cdb5","S","A","0","1","f","","","","f","2995.099999964237","","","0.3","0.35","false","test1","1","S","f","true","0.49629629629629635","1169.300000011921",""
"","","","","","html-keyboard-response","101","283806","0.0-9.0-2.8","664b8ef55422af2817ddcd59","5c492e3e4c3dc50001fbdb20","664b9d91a0d2bb7f8a60cdb5","S","A","0","1","f","","null","<div style=""width:150px;height:56px;font-size:30px;text-align:center;"">correct!</div>","null","","","","","","","","","","","","","",""
"","","","","","html-keyboard-response","102","284317","0.0-9.0-0.9","664b8ef55422af2817ddcd59","5c492e3e4c3dc50001fbdb20","664b9d91a0d2bb7f8a60cdb5","S","A","0","1","f","","null","<div style=""font-size:60px;"">+</div>","null","","","","","","","","","","","","","",""
"","","","","","noisyLetter","103","288121","0.0-9.0-1.9","664b8ef55422af2817ddcd59","5c492e3e4c3dc50001fbdb20","664b9d91a0d2bb7f8a60cdb5","S","A","0","1","f","","","","f","2636.5","","","0.3","0.1","false","test1","1","S","f","true","0.7","1002.8000000119209",""
"","","","","","html-keyboard-response","104","289123","0.0-9.0-2.9","664b8ef55422af2817ddcd59","5c492e3e4c3dc50001fbdb20","664b9d91a0d2bb7f8a60cdb5","S","A","0","1","f","","null","<div style=""width:150px;height:56px;font-size:30px;text-align:center;"">correct!</div>","null","","","","","","","","","","","","","",""
"","","","","","html-keyboard-response","105","289911","0.0-9.0-0.10","664b8ef55422af2817ddcd59","5c492e3e4c3dc50001fbdb20","664b9d91a0d2bb7f8a60cdb5","S","A","0","1","f","","null","<div style=""font-size:60px;"">+</div>","null","","","","","","","","","","","","","",""
"","","","","","noisyLetter","106","293638","0.0-9.0-1.10","664b8ef55422af2817ddcd59","5c492e3e4c3dc50001fbdb20","664b9d91a0d2bb7f8a60cdb5","S","A","0","1","f","","","","g","2623.2999999523163","","","0.3","0.1","false","test1","0","S","g","true","0.4703703703703703","950.1000000238419",""
"","","","","","html-keyboard-response","107","294639","0.0-9.0-2.10","664b8ef55422af2817ddcd59","5c492e3e4c3dc50001fbdb20","664b9d91a0d2bb7f8a60cdb5","S","A","0","1","f","","null","<div style=""width:150px;height:56px;font-size:30px;text-align:center;"">correct!</div>","null","","","","","","","","","","","","","",""
"","","","","","html-keyboard-response","108","295153","0.0-9.0-0.11","664b8ef55422af2817ddcd59","5c492e3e4c3dc50001fbdb20","664b9d91a0d2bb7f8a60cdb5","S","A","0","1","f","","null","<div style=""font-size:60px;"">+</div>","null","","","","","","","","","","","","","",""
"","","","","","noisyLetter","109","300021","0.0-9.0-1.11","664b8ef55422af2817ddcd59","5c492e3e4c3dc50001fbdb20","664b9d91a0d2bb7f8a60cdb5","S","A","0","1","f","","","","f","3731.5","","","0.3","0.35","false","test1","0","S","g","false","0.7018518518518518","958.4000000357628",""
"","","","","","html-keyboard-response","110","302522","0.0-9.0-2.11","664b8ef55422af2817ddcd59","5c492e3e4c3dc50001fbdb20","664b9d91a0d2bb7f8a60cdb5","S","A","0","1","f","","null","<div style=""width:150px;height:56px;border:0px;font-size:30px;text-align:center"">wrong.</div>","null","","","","","","","","","","","","","",""
"","","","","","html-keyboard-response","111","303198","0.0-9.0-0.12","664b8ef55422af2817ddcd59","5c492e3e4c3dc50001fbdb20","664b9d91a0d2bb7f8a60cdb5","S","A","0","1","f","","null","<div style=""font-size:60px;"">+</div>","null","","","","","","","","","","","","","",""
"","","","","","noisyLetter","112","307206","0.0-9.0-1.12","664b8ef55422af2817ddcd59","5c492e3e4c3dc50001fbdb20","664b9d91a0d2bb7f8a60cdb5","S","A","0","1","f","","","","g","2639.100000023842","","","0.3","0.35","false","test1","1","S","f","false","0.2240740740740741","1223.5999999642372",""
"","","","","","html-keyboard-response","113","309707","0.0-9.0-2.12","664b8ef55422af2817ddcd59","5c492e3e4c3dc50001fbdb20","664b9d91a0d2bb7f8a60cdb5","S","A","0","1","f","","null","<div style=""width:150px;height:56px;border:0px;font-size:30px;text-align:center"">wrong.</div>","null","","","","","","","","","","","","","",""
"","","","","","html-keyboard-response","114","310582","0.0-9.0-0.13","664b8ef55422af2817ddcd59","5c492e3e4c3dc50001fbdb20","664b9d91a0d2bb7f8a60cdb5","S","A","0","1","f","","null","<div style=""font-size:60px;"">+</div>","null","","","","","","","","","","","","","",""
"","","","","","noisyLetter","115","313905","0.0-9.0-1.13","664b8ef55422af2817ddcd59","5c492e3e4c3dc50001fbdb20","664b9d91a0d2bb7f8a60cdb5","S","A","0","1","f","","","","f","2196.600000023842","","","0.3","0.1","false","test1","1","S","f","true","0.5555555555555556","965.1999999880791",""
"","","","","","html-keyboard-response","116","314906","0.0-9.0-2.13","664b8ef55422af2817ddcd59","5c492e3e4c3dc50001fbdb20","664b9d91a0d2bb7f8a60cdb5","S","A","0","1","f","","null","<div style=""width:150px;height:56px;font-size:30px;text-align:center;"">correct!</div>","null","","","","","","","","","","","","","",""
"","","","","","html-keyboard-response","117","315843","0.0-9.0-0.14","664b8ef55422af2817ddcd59","5c492e3e4c3dc50001fbdb20","664b9d91a0d2bb7f8a60cdb5","S","A","0","1","f","","null","<div style=""font-size:60px;"">+</div>","null","","","","","","","","","","","","","",""
"","","","","","noisyLetter","118","321105","0.0-9.0-1.14","664b8ef55422af2817ddcd59","5c492e3e4c3dc50001fbdb20","664b9d91a0d2bb7f8a60cdb5","S","A","0","1","f","","","","f","4006","","","0.3","0.1","false","test1","0","S","g","false","0.3203703703703704","1064.9000000357628",""
"","","","","","html-keyboard-response","119","323606","0.0-9.0-2.14","664b8ef55422af2817ddcd59","5c492e3e4c3dc50001fbdb20","664b9d91a0d2bb7f8a60cdb5","S","A","0","1","f","","null","<div style=""width:150px;height:56px;border:0px;font-size:30px;text-align:center"">wrong.</div>","null","","","","","","","","","","","","","",""
"","","","","","html-keyboard-response","120","324323","0.0-9.0-0.15","664b8ef55422af2817ddcd59","5c492e3e4c3dc50001fbdb20","664b9d91a0d2bb7f8a60cdb5","S","A","0","1","f","","null","<div style=""font-size:60px;"">+</div>","null","","","","","","","","","","","","","",""
"","","","","","noisyLetter","121","328255","0.0-9.0-1.15","664b8ef55422af2817ddcd59","5c492e3e4c3dc50001fbdb20","664b9d91a0d2bb7f8a60cdb5","S","A","0","1","f","","","","g","2658.800000011921","","","0.3","0.35","false","test1","0","S","g","true","0.6944444444444444","1087.5999999642372",""
"","","","","","html-keyboard-response","122","329255","0.0-9.0-2.15","664b8ef55422af2817ddcd59","5c492e3e4c3dc50001fbdb20","664b9d91a0d2bb7f8a60cdb5","S","A","0","1","f","","null","<div style=""width:150px;height:56px;font-size:30px;text-align:center;"">correct!</div>","null","","","","","","","","","","","","","",""
"","","","","","instructions","123","340625","0.0-10.0","664b8ef55422af2817ddcd59","5c492e3e4c3dc50001fbdb20","664b9d91a0d2bb7f8a60cdb5","S","A","0","1","f","[{""page_index"":0,""viewing_time"":3520},{""page_index"":1,""viewing_time"":7075},{""page_index"":2,""viewing_time"":774}]","11369","","","","","","","","","","","","","","","",""
"","","","","","html-keyboard-response","124","341489","0.0-11.0-1.0-0.0","664b8ef55422af2817ddcd59","5c492e3e4c3dc50001fbdb20","664b9d91a0d2bb7f8a60cdb5","S","A","0","1","f","","null","<div style=""font-size:60px;"">+</div>","null","","","","","","","","","","","","","",""
"","","","","","noisyLetter","125","345423","0.0-11.0-1.0-1.0","664b8ef55422af2817ddcd59","5c492e3e4c3dc50001fbdb20","664b9d91a0d2bb7f8a60cdb5","S","A","0","1","f","","","","g","3573.5","","","0.35","0","false","practice","0","A","g","true","","",""
"","","","","","html-keyboard-response","126","346924","0.0-11.0-1.0-2.0","664b8ef55422af2817ddcd59","5c492e3e4c3dc50001fbdb20","664b9d91a0d2bb7f8a60cdb5","S","A","0","1","f","","null","<div style=""width:300px;height:56px;border:0px;font-size:30px;text-align:center"">Correct! This was just noise.</div>","null","","","","","","","","","","","","","",""
"","","","","","html-keyboard-response","127","347572","0.0-11.0-1.0-0.1","664b8ef55422af2817ddcd59","5c492e3e4c3dc50001fbdb20","664b9d91a0d2bb7f8a60cdb5","S","A","0","1","f","","null","<div style=""font-size:60px;"">+</div>","null","","","","","","","","","","","","","",""
"","","","","","noisyLetter","128","350838","0.0-11.0-1.0-1.1","664b8ef55422af2817ddcd59","5c492e3e4c3dc50001fbdb20","664b9d91a0d2bb7f8a60cdb5","S","A","0","1","f","","","","f","2886.699999988079","","","0.35","0","false","practice","1","A","f","true","","",""
"","","","","","html-keyboard-response","129","352339","0.0-11.0-1.0-2.1","664b8ef55422af2817ddcd59","5c492e3e4c3dc50001fbdb20","664b9d91a0d2bb7f8a60cdb5","S","A","0","1","f","","null","<div style=""width:300px;height:56px;font-size:30px;text-align:center;"">Correct! You detected the letter.</div>","null","","","","","","","","","","","","","",""
"","","","","","html-keyboard-response","130","352854","0.0-11.0-1.0-0.2","664b8ef55422af2817ddcd59","5c492e3e4c3dc50001fbdb20","664b9d91a0d2bb7f8a60cdb5","S","A","0","1","f","","null","<div style=""font-size:60px;"">+</div>","null","","","","","","","","","","","","","",""
"","","","","","noisyLetter","131","355522","0.0-11.0-1.0-1.2","664b8ef55422af2817ddcd59","5c492e3e4c3dc50001fbdb20","664b9d91a0d2bb7f8a60cdb5","S","A","0","1","f","","","","g","2297.199999988079","","","0.35","0","false","practice","0","A","g","true","","",""
"","","","","","html-keyboard-response","132","357024","0.0-11.0-1.0-2.2","664b8ef55422af2817ddcd59","5c492e3e4c3dc50001fbdb20","664b9d91a0d2bb7f8a60cdb5","S","A","0","1","f","","null","<div style=""width:300px;height:56px;border:0px;font-size:30px;text-align:center"">Correct! This was just noise.</div>","null","","","","","","","","","","","","","",""
"","","","","","html-keyboard-response","133","357557","0.0-11.0-1.0-0.3","664b8ef55422af2817ddcd59","5c492e3e4c3dc50001fbdb20","664b9d91a0d2bb7f8a60cdb5","S","A","0","1","f","","null","<div style=""font-size:60px;"">+</div>","null","","","","","","","","","","","","","",""
"","","","","","noisyLetter","134","359505","0.0-11.0-1.0-1.3","664b8ef55422af2817ddcd59","5c492e3e4c3dc50001fbdb20","664b9d91a0d2bb7f8a60cdb5","S","A","0","1","f","","","","f","1566.3999999761581","","","0.35","0","false","practice","1","A","f","true","","",""
"","","","","","html-keyboard-response","135","361006","0.0-11.0-1.0-2.3","664b8ef55422af2817ddcd59","5c492e3e4c3dc50001fbdb20","664b9d91a0d2bb7f8a60cdb5","S","A","0","1","f","","null","<div style=""width:300px;height:56px;font-size:30px;text-align:center;"">Correct! You detected the letter.</div>","null","","","","","","","","","","","","","",""
"","","","","","instructions","136","366460","0.0-12.0","664b8ef55422af2817ddcd59","5c492e3e4c3dc50001fbdb20","664b9d91a0d2bb7f8a60cdb5","S","A","0","1","f","[{""page_index"":0,""viewing_time"":5453}]","5453","","","","","","","","","","","","","","","",""
"","","","","","html-keyboard-response","137","367444","0.0-13.0-0.0","664b8ef55422af2817ddcd59","5c492e3e4c3dc50001fbdb20","664b9d91a0d2bb7f8a60cdb5","S","A","0","1","f","","null","<div style=""font-size:60px;"">+</div>","null","","","","","","","","","","","","","",""
"","","","","","noisyLetter","138","373172","0.0-13.0-1.0","664b8ef55422af2817ddcd59","5c492e3e4c3dc50001fbdb20","664b9d91a0d2bb7f8a60cdb5","S","A","0","1","f","","","","f","3343.5","","","0.3","0.35","false","test2","0","A","g","false","0.28888888888888886","2223.899999976158",""
"","","","","","html-keyboard-response","139","375674","0.0-13.0-2.0","664b8ef55422af2817ddcd59","5c492e3e4c3dc50001fbdb20","664b9d91a0d2bb7f8a60cdb5","S","A","0","1","f","","null","<div style=""width:150px;height:56px;border:0px;font-size:30px;text-align:center"">wrong.</div>","null","","","","","","","","","","","","","",""
"","","","","","html-keyboard-response","140","376393","0.0-13.0-0.1","664b8ef55422af2817ddcd59","5c492e3e4c3dc50001fbdb20","664b9d91a0d2bb7f8a60cdb5","S","A","0","1","f","","null","<div style=""font-size:60px;"">+</div>","null","","","","","","","","","","","","","",""
"","","","","","noisyLetter","141","380322","0.0-13.0-1.1","664b8ef55422af2817ddcd59","5c492e3e4c3dc50001fbdb20","664b9d91a0d2bb7f8a60cdb5","S","A","0","1","f","","","","f","2568.600000023842","","","0.3","0.1","false","test2","1","A","f","true","0.8","1201.5",""
"","","","","","html-keyboard-response","142","381323","0.0-13.0-2.1","664b8ef55422af2817ddcd59","5c492e3e4c3dc50001fbdb20","664b9d91a0d2bb7f8a60cdb5","S","A","0","1","f","","null","<div style=""width:150px;height:56px;font-size:30px;text-align:center;"">correct!</div>","null","","","","","","","","","","","","","",""
"","","","","","html-keyboard-response","143","382199","0.0-13.0-0.2","664b8ef55422af2817ddcd59","5c492e3e4c3dc50001fbdb20","664b9d91a0d2bb7f8a60cdb5","S","A","0","1","f","","null","<div style=""font-size:60px;"">+</div>","null","","","","","","","","","","","","","",""
"","","","","","noisyLetter","144","385805","0.0-13.0-1.2","664b8ef55422af2817ddcd59","5c492e3e4c3dc50001fbdb20","664b9d91a0d2bb7f8a60cdb5","S","A","0","1","f","","","","f","2415.5","","","0.3","0.35","false","test2","1","A","f","true","0.7","1000.4000000357628",""
"","","","","","html-keyboard-response","145","386806","0.0-13.0-2.2","664b8ef55422af2817ddcd59","5c492e3e4c3dc50001fbdb20","664b9d91a0d2bb7f8a60cdb5","S","A","0","1","f","","null","<div style=""width:150px;height:56px;font-size:30px;text-align:center;"">correct!</div>","null","","","","","","","","","","","","","",""
"","","","","","html-keyboard-response","146","387476","0.0-13.0-0.3","664b8ef55422af2817ddcd59","5c492e3e4c3dc50001fbdb20","664b9d91a0d2bb7f8a60cdb5","S","A","0","1","f","","null","<div style=""font-size:60px;"">+</div>","null","","","","","","","","","","","","","",""
"","","","","","noisyLetter","147","392539","0.0-13.0-1.3","664b8ef55422af2817ddcd59","5c492e3e4c3dc50001fbdb20","664b9d91a0d2bb7f8a60cdb5","S","A","0","1","f","","","","f","3343.600000023842","","","0.3","0.1","false","test2","0","A","g","false","0.4185185185185185","1554.8999999761581",""
"","","","","","html-keyboard-response","148","395039","0.0-13.0-2.3","664b8ef55422af2817ddcd59","5c492e3e4c3dc50001fbdb20","664b9d91a0d2bb7f8a60cdb5","S","A","0","1","f","","null","<div style=""width:150px;height:56px;border:0px;font-size:30px;text-align:center"">wrong.</div>","null","","","","","","","","","","","","","",""
"","","","","","html-keyboard-response","149","395858","0.0-13.0-0.4","664b8ef55422af2817ddcd59","5c492e3e4c3dc50001fbdb20","664b9d91a0d2bb7f8a60cdb5","S","A","0","1","f","","null","<div style=""font-size:60px;"">+</div>","null","","","","","","","","","","","","","",""
"","","","","","noisyLetter","150","398588","0.0-13.0-1.4","664b8ef55422af2817ddcd59","5c492e3e4c3dc50001fbdb20","664b9d91a0d2bb7f8a60cdb5","S","A","0","1","f","","","","f","1765.3999999761581","","","0.3","0.35","false","test2","0","A","g","false","0.475925925925926","771.1000000238419",""
"","","","","","html-keyboard-response","151","401090","0.0-13.0-2.4","664b8ef55422af2817ddcd59","5c492e3e4c3dc50001fbdb20","664b9d91a0d2bb7f8a60cdb5","S","A","0","1","f","","null","<div style=""width:150px;height:56px;border:0px;font-size:30px;text-align:center"">wrong.</div>","null","","","","","","","","","","","","","",""
"","","","","","html-keyboard-response","152","401973","0.0-13.0-0.5","664b8ef55422af2817ddcd59","5c492e3e4c3dc50001fbdb20","664b9d91a0d2bb7f8a60cdb5","S","A","0","1","f","","null","<div style=""font-size:60px;"">+</div>","null","","","","","","","","","","","","","",""
"","","","","","noisyLetter","153","404905","0.0-13.0-1.5","664b8ef55422af2817ddcd59","5c492e3e4c3dc50001fbdb20","664b9d91a0d2bb7f8a60cdb5","S","A","0","1","f","","","","f","1760.3999999761581","","","0.3","0.1","false","test2","1","A","f","true","0.8333333333333334","1023.5",""
"","","","","","html-keyboard-response","154","405906","0.0-13.0-2.5","664b8ef55422af2817ddcd59","5c492e3e4c3dc50001fbdb20","664b9d91a0d2bb7f8a60cdb5","S","A","0","1","f","","null","<div style=""width:150px;height:56px;font-size:30px;text-align:center;"">correct!</div>","null","","","","","","","","","","","","","",""
"","","","","","html-keyboard-response","155","406462","0.0-13.0-0.6","664b8ef55422af2817ddcd59","5c492e3e4c3dc50001fbdb20","664b9d91a0d2bb7f8a60cdb5","S","A","0","1","f","","null","<div style=""font-size:60px;"">+</div>","null","","","","","","","","","","","","","",""
"","","","","","noisyLetter","156","410539","0.0-13.0-1.6","664b8ef55422af2817ddcd59","5c492e3e4c3dc50001fbdb20","664b9d91a0d2bb7f8a60cdb5","S","A","0","1","f","","","","g","2532.199999988079","","","0.3","0.1","false","test2","0","A","g","true","0.7259259259259259","1395.3999999761581",""
"","","","","","html-keyboard-response","157","411552","0.0-13.0-2.6","664b8ef55422af2817ddcd59","5c492e3e4c3dc50001fbdb20","664b9d91a0d2bb7f8a60cdb5","S","A","0","1","f","","null","<div style=""width:150px;height:56px;font-size:30px;text-align:center;"">correct!</div>","null","","","","","","","","","","","","","",""
"","","","","","html-keyboard-response","158","412465","0.0-13.0-0.7","664b8ef55422af2817ddcd59","5c492e3e4c3dc50001fbdb20","664b9d91a0d2bb7f8a60cdb5","S","A","0","1","f","","null","<div style=""font-size:60px;"">+</div>","null","","","","","","","","","","","","","",""
"","","","","","noisyLetter","159","417206","0.0-13.0-1.7","664b8ef55422af2817ddcd59","5c492e3e4c3dc50001fbdb20","664b9d91a0d2bb7f8a60cdb5","S","A","0","1","f","","","","f","3778.5","","","0.3","0.35","false","test2","1","A","f","true","0.6166666666666667","787.0999999642372",""
"","","","","","html-keyboard-response","160","418206","0.0-13.0-2.7","664b8ef55422af2817ddcd59","5c492e3e4c3dc50001fbdb20","664b9d91a0d2bb7f8a60cdb5","S","A","0","1","f","","null","<div style=""width:150px;height:56px;font-size:30px;text-align:center;"">correct!</div>","null","","","","","","","","","","","","","",""
"","","","","","html-keyboard-response","161","419116","0.0-13.0-0.8","664b8ef55422af2817ddcd59","5c492e3e4c3dc50001fbdb20","664b9d91a0d2bb7f8a60cdb5","S","A","0","1","f","","null","<div style=""font-size:60px;"">+</div>","null","","","","","","","","","","","","","",""
"","","","","","noisyLetter","162","423922","0.0-13.0-1.8","664b8ef55422af2817ddcd59","5c492e3e4c3dc50001fbdb20","664b9d91a0d2bb7f8a60cdb5","S","A","0","1","f","","","","g","3895.699999988079","","","0.3","0.1","false","test2","0","A","g","true","0.4537037037037037","778.0999999642372",""
"","","","","","html-keyboard-response","163","424923","0.0-13.0-2.8","664b8ef55422af2817ddcd59","5c492e3e4c3dc50001fbdb20","664b9d91a0d2bb7f8a60cdb5","S","A","0","1","f","","null","<div style=""width:150px;height:56px;font-size:30px;text-align:center;"">correct!</div>","null","","","","","","","","","","","","","",""
"","","","","","html-keyboard-response","164","425640","0.0-13.0-0.9","664b8ef55422af2817ddcd59","5c492e3e4c3dc50001fbdb20","664b9d91a0d2bb7f8a60cdb5","S","A","0","1","f","","null","<div style=""font-size:60px;"">+</div>","null","","","","","","","","","","","","","",""
"","","","","","noisyLetter","165","429305","0.0-13.0-1.9","664b8ef55422af2817ddcd59","5c492e3e4c3dc50001fbdb20","664b9d91a0d2bb7f8a60cdb5","S","A","0","1","f","","","","f","2580.699999988079","","","0.3","0.1","false","test2","1","A","f","true","0.8592592592592593","943.3999999761581",""
"","","","","","html-keyboard-response","166","430306","0.0-13.0-2.9","664b8ef55422af2817ddcd59","5c492e3e4c3dc50001fbdb20","664b9d91a0d2bb7f8a60cdb5","S","A","0","1","f","","null","<div style=""width:150px;height:56px;font-size:30px;text-align:center;"">correct!</div>","null","","","","","","","","","","","","","",""
"","","","","","html-keyboard-response","167","431051","0.0-13.0-0.10","664b8ef55422af2817ddcd59","5c492e3e4c3dc50001fbdb20","664b9d91a0d2bb7f8a60cdb5","S","A","0","1","f","","null","<div style=""font-size:60px;"">+</div>","null","","","","","","","","","","","","","",""
"","","","","","noisyLetter","168","434239","0.0-13.0-1.10","664b8ef55422af2817ddcd59","5c492e3e4c3dc50001fbdb20","664b9d91a0d2bb7f8a60cdb5","S","A","0","1","f","","","","f","2171.899999976158","","","0.3","0.35","false","test2","1","A","f","true","0.6666666666666667","854.3000000119209",""
"","","","","","html-keyboard-response","169","435239","0.0-13.0-2.10","664b8ef55422af2817ddcd59","5c492e3e4c3dc50001fbdb20","664b9d91a0d2bb7f8a60cdb5","S","A","0","1","f","","null","<div style=""width:150px;height:56px;font-size:30px;text-align:center;"">correct!</div>","null","","","","","","","","","","","","","",""
"","","","","","html-keyboard-response","170","436119","0.0-13.0-0.11","664b8ef55422af2817ddcd59","5c492e3e4c3dc50001fbdb20","664b9d91a0d2bb7f8a60cdb5","S","A","0","1","f","","null","<div style=""font-size:60px;"">+</div>","null","","","","","","","","","","","","","",""
"","","","","","noisyLetter","171","441722","0.0-13.0-1.11","664b8ef55422af2817ddcd59","5c492e3e4c3dc50001fbdb20","664b9d91a0d2bb7f8a60cdb5","S","A","0","1","f","","","","g","4553.400000035763","","","0.3","0.35","false","test2","0","A","g","true","0.6388888888888888","909.0999999642372",""
"","","","","","html-keyboard-response","172","442722","0.0-13.0-2.11","664b8ef55422af2817ddcd59","5c492e3e4c3dc50001fbdb20","664b9d91a0d2bb7f8a60cdb5","S","A","0","1","f","","null","<div style=""width:150px;height:56px;font-size:30px;text-align:center;"">correct!</div>","null","","","","","","","","","","","","","",""
"","","","","","html-keyboard-response","173","443327","0.0-13.0-0.12","664b8ef55422af2817ddcd59","5c492e3e4c3dc50001fbdb20","664b9d91a0d2bb7f8a60cdb5","S","A","0","1","f","","null","<div style=""font-size:60px;"">+</div>","null","","","","","","","","","","","","","",""
"","","","","","noisyLetter","174","446806","0.0-13.0-1.12","664b8ef55422af2817ddcd59","5c492e3e4c3dc50001fbdb20","664b9d91a0d2bb7f8a60cdb5","S","A","0","1","f","","","","g","2417","","","0.3","0.35","false","test2","0","A","g","true","0.49629629629629635","869.6000000238419",""
"","","","","","html-keyboard-response","175","447807","0.0-13.0-2.12","664b8ef55422af2817ddcd59","5c492e3e4c3dc50001fbdb20","664b9d91a0d2bb7f8a60cdb5","S","A","0","1","f","","null","<div style=""width:150px;height:56px;font-size:30px;text-align:center;"">correct!</div>","null","","","","","","","","","","","","","",""
"","","","","","html-keyboard-response","176","448630","0.0-13.0-0.13","664b8ef55422af2817ddcd59","5c492e3e4c3dc50001fbdb20","664b9d91a0d2bb7f8a60cdb5","S","A","0","1","f","","null","<div style=""font-size:60px;"">+</div>","null","","","","","","","","","","","","","",""
"","","","","","noisyLetter","177","452906","0.0-13.0-1.13","664b8ef55422af2817ddcd59","5c492e3e4c3dc50001fbdb20","664b9d91a0d2bb7f8a60cdb5","S","A","0","1","f","","","","g","3157.400000035763","","","0.3","0.1","false","test2","0","A","g","true","0.43518518518518523","971.5999999642372",""
"","","","","","html-keyboard-response","178","453908","0.0-13.0-2.13","664b8ef55422af2817ddcd59","5c492e3e4c3dc50001fbdb20","664b9d91a0d2bb7f8a60cdb5","S","A","0","1","f","","null","<div style=""width:150px;height:56px;font-size:30px;text-align:center;"">correct!</div>","null","","","","","","","","","","","","","",""
"","","","","","html-keyboard-response","179","454787","0.0-13.0-0.14","664b8ef55422af2817ddcd59","5c492e3e4c3dc50001fbdb20","664b9d91a0d2bb7f8a60cdb5","S","A","0","1","f","","null","<div style=""font-size:60px;"">+</div>","null","","","","","","","","","","","","","",""
"","","","","","noisyLetter","180","458056","0.0-13.0-1.14","664b8ef55422af2817ddcd59","5c492e3e4c3dc50001fbdb20","664b9d91a0d2bb7f8a60cdb5","S","A","0","1","f","","","","f","2290.2999999523163","","","0.3","0.1","false","test2","1","A","f","true","0.5722222222222222","783.2000000476837",""
"","","","","","html-keyboard-response","181","459057","0.0-13.0-2.14","664b8ef55422af2817ddcd59","5c492e3e4c3dc50001fbdb20","664b9d91a0d2bb7f8a60cdb5","S","A","0","1","f","","null","<div style=""width:150px;height:56px;font-size:30px;text-align:center;"">correct!</div>","null","","","","","","","","","","","","","",""
"","","","","","html-keyboard-response","182","459585","0.0-13.0-0.15","664b8ef55422af2817ddcd59","5c492e3e4c3dc50001fbdb20","664b9d91a0d2bb7f8a60cdb5","S","A","0","1","f","","null","<div style=""font-size:60px;"">+</div>","null","","","","","","","","","","","","","",""
"","","","","","noisyLetter","183","462572","0.0-13.0-1.15","664b8ef55422af2817ddcd59","5c492e3e4c3dc50001fbdb20","664b9d91a0d2bb7f8a60cdb5","S","A","0","1","f","","","","f","2001.199999988079","","","0.3","0.35","false","test2","1","A","f","true","0.5703703703703704","820",""
"","","","","","html-keyboard-response","184","463574","0.0-13.0-2.15","664b8ef55422af2817ddcd59","5c492e3e4c3dc50001fbdb20","664b9d91a0d2bb7f8a60cdb5","S","A","0","1","f","","null","<div style=""width:150px;height:56px;font-size:30px;text-align:center;"">correct!</div>","null","","","","","","","","","","","","","",""
"","","","","","instructions","185","470162","0.0-14.0","664b8ef55422af2817ddcd59","5c492e3e4c3dc50001fbdb20","664b9d91a0d2bb7f8a60cdb5","S","A","0","1","f","[{""page_index"":0,""viewing_time"":6587}]","6587","","","","","","","","","","","","","","","",""
"","","","","","html-keyboard-response","186","470749","0.0-15.0-0.0","664b8ef55422af2817ddcd59","5c492e3e4c3dc50001fbdb20","664b9d91a0d2bb7f8a60cdb5","S","A","0","1","f","","null","<div style=""font-size:60px;"">+</div>","null","","","","","","","","","","","","","",""
"","","","","","noisyLetter","187","474155","0.0-15.0-1.0","664b8ef55422af2817ddcd59","5c492e3e4c3dc50001fbdb20","664b9d91a0d2bb7f8a60cdb5","S","A","0","1","f","","","","g","2263.800000011921","","","0.3","0.1","false","test2","0","A","g","true","0.5444444444444445","995.3999999761581",""
"","","","","","html-keyboard-response","188","475156","0.0-15.0-2.0","664b8ef55422af2817ddcd59","5c492e3e4c3dc50001fbdb20","664b9d91a0d2bb7f8a60cdb5","S","A","0","1","f","","null","<div style=""width:150px;height:56px;font-size:30px;text-align:center;"">correct!</div>","null","","","","","","","","","","","","","",""
"","","","","","html-keyboard-response","189","475991","0.0-15.0-0.1","664b8ef55422af2817ddcd59","5c492e3e4c3dc50001fbdb20","664b9d91a0d2bb7f8a60cdb5","S","A","0","1","f","","null","<div style=""font-size:60px;"">+</div>","null","","","","","","","","","","","","","",""
"","","","","","noisyLetter","190","479456","0.0-15.0-1.1","664b8ef55422af2817ddcd59","5c492e3e4c3dc50001fbdb20","664b9d91a0d2bb7f8a60cdb5","S","A","0","1","f","","","","g","2368.400000035763","","","0.3","0.35","false","test2","0","A","g","true","0.5037037037037038","943.5999999642372",""
"","","","","","html-keyboard-response","191","480457","0.0-15.0-2.1","664b8ef55422af2817ddcd59","5c492e3e4c3dc50001fbdb20","664b9d91a0d2bb7f8a60cdb5","S","A","0","1","f","","null","<div style=""width:150px;height:56px;font-size:30px;text-align:center;"">correct!</div>","null","","","","","","","","","","","","","",""
"","","","","","html-keyboard-response","192","480997","0.0-15.0-0.2","664b8ef55422af2817ddcd59","5c492e3e4c3dc50001fbdb20","664b9d91a0d2bb7f8a60cdb5","S","A","0","1","f","","null","<div style=""font-size:60px;"">+</div>","null","","","","","","","","","","","","","",""
"","","","","","noisyLetter","193","483922","0.0-15.0-1.2","664b8ef55422af2817ddcd59","5c492e3e4c3dc50001fbdb20","664b9d91a0d2bb7f8a60cdb5","S","A","0","1","f","","","","f","1759.800000011921","","","0.3","0.35","false","test2","1","A","f","true","0.5833333333333333","982.8999999761581",""
"","","","","","html-keyboard-response","194","484923","0.0-15.0-2.2","664b8ef55422af2817ddcd59","5c492e3e4c3dc50001fbdb20","664b9d91a0d2bb7f8a60cdb5","S","A","0","1","f","","null","<div style=""width:150px;height:56px;font-size:30px;text-align:center;"">correct!</div>","null","","","","","","","","","","","","","",""
"","","","","","html-keyboard-response","195","485869","0.0-15.0-0.3","664b8ef55422af2817ddcd59","5c492e3e4c3dc50001fbdb20","664b9d91a0d2bb7f8a60cdb5","S","A","0","1","f","","null","<div style=""font-size:60px;"">+</div>","null","","","","","","","","","","","","","",""
"","","","","","noisyLetter","196","488872","0.0-15.0-1.3","664b8ef55422af2817ddcd59","5c492e3e4c3dc50001fbdb20","664b9d91a0d2bb7f8a60cdb5","S","A","0","1","f","","","","f","2018.699999988079","","","0.3","0.1","false","test2","1","A","f","true","0.6277777777777778","796.6999999880791",""
"","","","","","html-keyboard-response","197","489873","0.0-15.0-2.3","664b8ef55422af2817ddcd59","5c492e3e4c3dc50001fbdb20","664b9d91a0d2bb7f8a60cdb5","S","A","0","1","f","","null","<div style=""width:150px;height:56px;font-size:30px;text-align:center;"">correct!</div>","null","","","","","","","","","","","","","",""
"","","","","","html-keyboard-response","198","490605","0.0-15.0-0.4","664b8ef55422af2817ddcd59","5c492e3e4c3dc50001fbdb20","664b9d91a0d2bb7f8a60cdb5","S","A","0","1","f","","null","<div style=""font-size:60px;"">+</div>","null","","","","","","","","","","","","","",""
"","","","","","noisyLetter","199","494205","0.0-15.0-1.4","664b8ef55422af2817ddcd59","5c492e3e4c3dc50001fbdb20","664b9d91a0d2bb7f8a60cdb5","S","A","0","1","f","","","","f","2788.699999988079","","","0.3","0.35","false","test2","1","A","f","true","0.6703703703703704","663.1000000238419",""
"","","","","","html-keyboard-response","200","495206","0.0-15.0-2.4","664b8ef55422af2817ddcd59","5c492e3e4c3dc50001fbdb20","664b9d91a0d2bb7f8a60cdb5","S","A","0","1","f","","null","<div style=""width:150px;height:56px;font-size:30px;text-align:center;"">correct!</div>","null","","","","","","","","","","","","","",""
"","","","","","html-keyboard-response","201","496079","0.0-15.0-0.5","664b8ef55422af2817ddcd59","5c492e3e4c3dc50001fbdb20","664b9d91a0d2bb7f8a60cdb5","S","A","0","1","f","","null","<div style=""font-size:60px;"">+</div>","null","","","","","","","","","","","","","",""
"","","","","","noisyLetter","202","500022","0.0-15.0-1.5","664b8ef55422af2817ddcd59","5c492e3e4c3dc50001fbdb20","664b9d91a0d2bb7f8a60cdb5","S","A","0","1","f","","","","g","2806.099999964237","","","0.3","0.35","false","test2","0","A","g","true","0.4629629629629629","991.3000000119209",""
"","","","","","html-keyboard-response","203","501023","0.0-15.0-2.5","664b8ef55422af2817ddcd59","5c492e3e4c3dc50001fbdb20","664b9d91a0d2bb7f8a60cdb5","S","A","0","1","f","","null","<div style=""width:150px;height:56px;font-size:30px;text-align:center;"">correct!</div>","null","","","","","","","","","","","","","",""
"","","","","","html-keyboard-response","204","501975","0.0-15.0-0.6","664b8ef55422af2817ddcd59","5c492e3e4c3dc50001fbdb20","664b9d91a0d2bb7f8a60cdb5","S","A","0","1","f","","null","<div style=""font-size:60px;"">+</div>","null","","","","","","","","","","","","","",""
"","","","","","noisyLetter","205","505721","0.0-15.0-1.6","664b8ef55422af2817ddcd59","5c492e3e4c3dc50001fbdb20","664b9d91a0d2bb7f8a60cdb5","S","A","0","1","f","","","","g","2618.199999988079","","","0.3","0.1","false","test2","1","A","f","false","0.475925925925926","951.7000000476837",""
"","","","","","html-keyboard-response","206","508222","0.0-15.0-2.6","664b8ef55422af2817ddcd59","5c492e3e4c3dc50001fbdb20","664b9d91a0d2bb7f8a60cdb5","S","A","0","1","f","","null","<div style=""width:150px;height:56px;border:0px;font-size:30px;text-align:center"">wrong.</div>","null","","","","","","","","","","","","","",""
"","","","","","html-keyboard-response","207","508984","0.0-15.0-0.7","664b8ef55422af2817ddcd59","5c492e3e4c3dc50001fbdb20","664b9d91a0d2bb7f8a60cdb5","S","A","0","1","f","","null","<div style=""font-size:60px;"">+</div>","null","","","","","","","","","","","","","",""
"","","","","","noisyLetter","208","512388","0.0-15.0-1.7","664b8ef55422af2817ddcd59","5c492e3e4c3dc50001fbdb20","664b9d91a0d2bb7f8a60cdb5","S","A","0","1","f","","","","g","2225.7999999523163","","","0.3","0.1","false","test2","0","A","g","true","0.47962962962962963","988.9000000357628",""
"","","","","","html-keyboard-response","209","513389","0.0-15.0-2.7","664b8ef55422af2817ddcd59","5c492e3e4c3dc50001fbdb20","664b9d91a0d2bb7f8a60cdb5","S","A","0","1","f","","null","<div style=""width:150px;height:56px;font-size:30px;text-align:center;"">correct!</div>","null","","","","","","","","","","","","","",""
"","","","","","html-keyboard-response","210","514199","0.0-15.0-0.8","664b8ef55422af2817ddcd59","5c492e3e4c3dc50001fbdb20","664b9d91a0d2bb7f8a60cdb5","S","A","0","1","f","","null","<div style=""font-size:60px;"">+</div>","null","","","","","","","","","","","","","",""
"","","","","","noisyLetter","211","517338","0.0-15.0-1.8","664b8ef55422af2817ddcd59","5c492e3e4c3dc50001fbdb20","664b9d91a0d2bb7f8a60cdb5","S","A","0","1","f","","","","g","2177.899999976158","","","0.3","0.35","false","test2","0","A","g","true","0.4814814814814815","783.3000000119209",""
"","","","","","html-keyboard-response","212","518340","0.0-15.0-2.8","664b8ef55422af2817ddcd59","5c492e3e4c3dc50001fbdb20","664b9d91a0d2bb7f8a60cdb5","S","A","0","1","f","","null","<div style=""width:150px;height:56px;font-size:30px;text-align:center;"">correct!</div>","null","","","","","","","","","","","","","",""
"","","","","","html-keyboard-response","213","518873","0.0-15.0-0.9","664b8ef55422af2817ddcd59","5c492e3e4c3dc50001fbdb20","664b9d91a0d2bb7f8a60cdb5","S","A","0","1","f","","null","<div style=""font-size:60px;"">+</div>","null","","","","","","","","","","","","","",""
"","","","","","noisyLetter","214","523172","0.0-15.0-1.9","664b8ef55422af2817ddcd59","5c492e3e4c3dc50001fbdb20","664b9d91a0d2bb7f8a60cdb5","S","A","0","1","f","","","","g","2325.5","","","0.3","0.35","false","test2","1","A","f","false","0.5833333333333333","851.5999999642372",""
"","","","","","html-keyboard-response","215","525673","0.0-15.0-2.9","664b8ef55422af2817ddcd59","5c492e3e4c3dc50001fbdb20","664b9d91a0d2bb7f8a60cdb5","S","A","0","1","f","","null","<div style=""width:150px;height:56px;border:0px;font-size:30px;text-align:center"">wrong.</div>","null","","","","","","","","","","","","","",""
"","","","","","html-keyboard-response","216","526433","0.0-15.0-0.10","664b8ef55422af2817ddcd59","5c492e3e4c3dc50001fbdb20","664b9d91a0d2bb7f8a60cdb5","S","A","0","1","f","","null","<div style=""font-size:60px;"">+</div>","null","","","","","","","","","","","","","",""
"","","","","","noisyLetter","217","529522","0.0-15.0-1.10","664b8ef55422af2817ddcd59","5c492e3e4c3dc50001fbdb20","664b9d91a0d2bb7f8a60cdb5","S","A","0","1","f","","","","f","2027.199999988079","","","0.3","0.1","false","test2","1","A","f","true","0.7333333333333334","854.8000000119209",""
"","","","","","html-keyboard-response","218","530524","0.0-15.0-2.10","664b8ef55422af2817ddcd59","5c492e3e4c3dc50001fbdb20","664b9d91a0d2bb7f8a60cdb5","S","A","0","1","f","","null","<div style=""width:150px;height:56px;font-size:30px;text-align:center;"">correct!</div>","null","","","","","","","","","","","","","",""
"","","","","","html-keyboard-response","219","531145","0.0-15.0-0.11","664b8ef55422af2817ddcd59","5c492e3e4c3dc50001fbdb20","664b9d91a0d2bb7f8a60cdb5","S","A","0","1","f","","null","<div style=""font-size:60px;"">+</div>","null","","","","","","","","","","","","","",""
"","","","","","noisyLetter","220","534288","0.0-15.0-1.11","664b8ef55422af2817ddcd59","5c492e3e4c3dc50001fbdb20","664b9d91a0d2bb7f8a60cdb5","S","A","0","1","f","","","","g","1930.4000000357628","","","0.3","0.1","false","test2","0","A","g","true","0.4092592592592592","1037",""
"","","","","","html-keyboard-response","221","535290","0.0-15.0-2.11","664b8ef55422af2817ddcd59","5c492e3e4c3dc50001fbdb20","664b9d91a0d2bb7f8a60cdb5","S","A","0","1","f","","null","<div style=""width:150px;height:56px;font-size:30px;text-align:center;"">correct!</div>","null","","","","","","","","","","","","","",""
"","","","","","html-keyboard-response","222","536192","0.0-15.0-0.12","664b8ef55422af2817ddcd59","5c492e3e4c3dc50001fbdb20","664b9d91a0d2bb7f8a60cdb5","S","A","0","1","f","","null","<div style=""font-size:60px;"">+</div>","null","","","","","","","","","","","","","",""
"","","","","","noisyLetter","223","539655","0.0-15.0-1.12","664b8ef55422af2817ddcd59","5c492e3e4c3dc50001fbdb20","664b9d91a0d2bb7f8a60cdb5","S","A","0","1","f","","","","g","2584.699999988079","","","0.3","0.35","false","test2","0","A","g","true","0.48518518518518516","726.1000000238419",""
"","","","","","html-keyboard-response","224","540655","0.0-15.0-2.12","664b8ef55422af2817ddcd59","5c492e3e4c3dc50001fbdb20","664b9d91a0d2bb7f8a60cdb5","S","A","0","1","f","","null","<div style=""width:150px;height:56px;font-size:30px;text-align:center;"">correct!</div>","null","","","","","","","","","","","","","",""
"","","","","","html-keyboard-response","225","541293","0.0-15.0-0.13","664b8ef55422af2817ddcd59","5c492e3e4c3dc50001fbdb20","664b9d91a0d2bb7f8a60cdb5","S","A","0","1","f","","null","<div style=""font-size:60px;"">+</div>","null","","","","","","","","","","","","","",""
"","","","","","noisyLetter","226","544888","0.0-15.0-1.13","664b8ef55422af2817ddcd59","5c492e3e4c3dc50001fbdb20","664b9d91a0d2bb7f8a60cdb5","S","A","0","1","f","","","","g","2313.599999964237","","","0.3","0.35","false","test2","1","A","f","false","0.41666666666666663","1129.1000000238419",""
"","","","","","html-keyboard-response","227","547390","0.0-15.0-2.13","664b8ef55422af2817ddcd59","5c492e3e4c3dc50001fbdb20","664b9d91a0d2bb7f8a60cdb5","S","A","0","1","f","","null","<div style=""width:150px;height:56px;border:0px;font-size:30px;text-align:center"">wrong.</div>","null","","","","","","","","","","","","","",""
"","","","","","html-keyboard-response","228","547997","0.0-15.0-0.14","664b8ef55422af2817ddcd59","5c492e3e4c3dc50001fbdb20","664b9d91a0d2bb7f8a60cdb5","S","A","0","1","f","","null","<div style=""font-size:60px;"">+</div>","null","","","","","","","","","","","","","",""
"","","","","","noisyLetter","229","552139","0.0-15.0-1.14","664b8ef55422af2817ddcd59","5c492e3e4c3dc50001fbdb20","664b9d91a0d2bb7f8a60cdb5","S","A","0","1","f","","","","f","3163.099999964237","","","0.3","0.1","false","test2","1","A","f","true","0.47962962962962963","785.1999999880791",""
"","","","","","html-keyboard-response","230","553141","0.0-15.0-2.14","664b8ef55422af2817ddcd59","5c492e3e4c3dc50001fbdb20","664b9d91a0d2bb7f8a60cdb5","S","A","0","1","f","","null","<div style=""width:150px;height:56px;font-size:30px;text-align:center;"">correct!</div>","null","","","","","","","","","","","","","",""
"","","","","","html-keyboard-response","231","553848","0.0-15.0-0.15","664b8ef55422af2817ddcd59","5c492e3e4c3dc50001fbdb20","664b9d91a0d2bb7f8a60cdb5","S","A","0","1","f","","null","<div style=""font-size:60px;"">+</div>","null","","","","","","","","","","","","","",""
"","","","","","noisyLetter","232","557039","0.0-15.0-1.15","664b8ef55422af2817ddcd59","5c492e3e4c3dc50001fbdb20","664b9d91a0d2bb7f8a60cdb5","S","A","0","1","f","","","","g","2227.899999976158","","","0.3","0.1","false","test2","0","A","g","true","0.4814814814814815","796",""
"","","","","","html-keyboard-response","233","558041","0.0-15.0-2.15","664b8ef55422af2817ddcd59","5c492e3e4c3dc50001fbdb20","664b9d91a0d2bb7f8a60cdb5","S","A","0","1","f","","null","<div style=""width:150px;height:56px;font-size:30px;text-align:center;"">correct!</div>","null","","","","","","","","","","","","","",""
"","","","","","survey-multi-choice","234","565995","0.0-16.0","664b8ef55422af2817ddcd59","5c492e3e4c3dc50001fbdb20","664b9d91a0d2bb7f8a60cdb5","S","A","0","1","f","","7952","","{""which_was_harder"":""Yes! It was harder when more of the display was hidden behind black lines.""}","","","","","","","","","","","","","","[0]"
"","","","","","survey-text","235","567417","0.0-17.0","664b8ef55422af2817ddcd59","5c492e3e4c3dc50001fbdb20","664b9d91a0d2bb7f8a60cdb5","S","A","0","1","f","","1420","","{""worker_comments"":""""}","","","","","","","","","","","","","",""
"","","","","","instructions","236","571912","0.0-18.0","664b8ef55422af2817ddcd59","5c492e3e4c3dc50001fbdb20","664b9d91a0d2bb7f8a60cdb5","S","A","0","1","f","[{""page_index"":0,""viewing_time"":4495}]","4495","","","","","","","","","","","","","","","",""
"success","timeout","failed_images","failed_audio","failed_video","trial_type","trial_index","time_elapsed","internal_node_id","STUDY_ID","PROLIFIC_PID","SESSION_ID","first_target","second_target","practice_loops","comprehension_visits","presence_key","view_history","rt","stimulus","response","RT","context_string","context_img","max_p","hide_proportion","descend","test_part","present","target","correct_response","correct","confidence","confidence_RT","question_order"
"true","false","[]","[]","[]","preload","0","218","0.0-0.0","664b8ef55422af2817ddcd59","5ec99d7b36e0214b2f821627","664bae99c72e7307f9ff7229","S","A","0","1","g","","","","","","","","","","","","","","","","","",""
"true","","","","","fullscreen","1","92935","0.0-1.0","664b8ef55422af2817ddcd59","5ec99d7b36e0214b2f821627","664bae99c72e7307f9ff7229","S","A","0","1","g","","","","","","","","","","","","","","","","","",""
"","","","","","instructions","2","117405","0.0-2.0","664b8ef55422af2817ddcd59","5ec99d7b36e0214b2f821627","664bae99c72e7307f9ff7229","S","A","0","1","g","[{""page_index"":0,""viewing_time"":4719},{""page_index"":1,""viewing_time"":8696},{""page_index"":2,""viewing_time"":11054}]","24470","","","","","","","","","","","","","","","",""
"","","","","","html-keyboard-response","3","118205","0.0-3.0-1.0-0.0","664b8ef55422af2817ddcd59","5ec99d7b36e0214b2f821627","664bae99c72e7307f9ff7229","S","A","0","1","g","","null","<div style=""font-size:60px;"">+</div>","null","","","","","","","","","","","","","",""
"","","","","","noisyLetter","4","123346","0.0-3.0-1.0-1.0","664b8ef55422af2817ddcd59","5ec99d7b36e0214b2f821627","664bae99c72e7307f9ff7229","S","A","0","1","g","","","","f","4791","","","0.35","0","false","practice","0","S","f","true","","",""
"","","","","","html-keyboard-response","5","124848","0.0-3.0-1.0-2.0","664b8ef55422af2817ddcd59","5ec99d7b36e0214b2f821627","664bae99c72e7307f9ff7229","S","A","0","1","g","","null","<div style=""width:300px;height:56px;border:0px;font-size:30px;text-align:center"">Correct! This was just noise.</div>","null","","","","","","","","","","","","","",""
"","","","","","html-keyboard-response","6","125440","0.0-3.0-1.0-0.1","664b8ef55422af2817ddcd59","5ec99d7b36e0214b2f821627","664bae99c72e7307f9ff7229","S","A","0","1","g","","null","<div style=""font-size:60px;"">+</div>","null","","","","","","","","","","","","","",""
"","","","","","noisyLetter","7","127812","0.0-3.0-1.0-1.1","664b8ef55422af2817ddcd59","5ec99d7b36e0214b2f821627","664bae99c72e7307f9ff7229","S","A","0","1","g","","","","g","2028.6999999999534","","","0.35","0","false","practice","1","S","g","true","","",""
"","","","","","html-keyboard-response","8","129313","0.0-3.0-1.0-2.1","664b8ef55422af2817ddcd59","5ec99d7b36e0214b2f821627","664bae99c72e7307f9ff7229","S","A","0","1","g","","null","<div style=""width:300px;height:56px;font-size:30px;text-align:center;"">Correct! You detected the letter.</div>","null","","","","","","","","","","","","","",""
"","","","","","html-keyboard-response","9","129850","0.0-3.0-1.0-0.2","664b8ef55422af2817ddcd59","5ec99d7b36e0214b2f821627","664bae99c72e7307f9ff7229","S","A","0","1","g","","null","<div style=""font-size:60px;"">+</div>","null","","","","","","","","","","","","","",""
"","","","","","noisyLetter","10","131909","0.0-3.0-1.0-1.2","664b8ef55422af2817ddcd59","5ec99d7b36e0214b2f821627","664bae99c72e7307f9ff7229","S","A","0","1","g","","","","g","1686.5999999998603","","","0.35","0","false","practice","1","S","g","true","","",""
"","","","","","html-keyboard-response","11","133410","0.0-3.0-1.0-2.2","664b8ef55422af2817ddcd59","5ec99d7b36e0214b2f821627","664bae99c72e7307f9ff7229","S","A","0","1","g","","null","<div style=""width:300px;height:56px;font-size:30px;text-align:center;"">Correct! You detected the letter.</div>","null","","","","","","","","","","","","","",""
"","","","","","html-keyboard-response","12","134370","0.0-3.0-1.0-0.3","664b8ef55422af2817ddcd59","5ec99d7b36e0214b2f821627","664bae99c72e7307f9ff7229","S","A","0","1","g","","null","<div style=""font-size:60px;"">+</div>","null","","","","","","","","","","","","","",""
"","","","","","noisyLetter","13","136179","0.0-3.0-1.0-1.3","664b8ef55422af2817ddcd59","5ec99d7b36e0214b2f821627","664bae99c72e7307f9ff7229","S","A","0","1","g","","","","f","1478","","","0.35","0","false","practice","0","S","f","true","","",""
"","","","","","html-keyboard-response","14","137681","0.0-3.0-1.0-2.3","664b8ef55422af2817ddcd59","5ec99d7b36e0214b2f821627","664bae99c72e7307f9ff7229","S","A","0","1","g","","null","<div style=""width:300px;height:56px;border:0px;font-size:30px;text-align:center"">Correct! This was just noise.</div>","null","","","","","","","","","","","","","",""
"","","","","","instructions","15","143062","0.0-4.0","664b8ef55422af2817ddcd59","5ec99d7b36e0214b2f821627","664bae99c72e7307f9ff7229","S","A","0","1","g","[{""page_index"":0,""viewing_time"":3708},{""page_index"":1,""viewing_time"":1672}]","5380","","","","","","","","","","","","","","","",""
"","","","","","html-keyboard-response","16","143648","0.0-5.0-1.0-0.0-0.0","664b8ef55422af2817ddcd59","5ec99d7b36e0214b2f821627","664bae99c72e7307f9ff7229","S","A","0","1","g","","null","<div style=""font-size:60px;"">+</div>","null","","","","","","","","","","","","","",""
"","","","","","noisyLetter","17","147408","0.0-5.0-1.0-0.0-1.0","664b8ef55422af2817ddcd59","5ec99d7b36e0214b2f821627","664bae99c72e7307f9ff7229","S","A","0","1","g","","","","g","1708.3999999999069","","","0.35","0","false","practice","1","S","g","true","0.6018518518518519","1874",""
"","","","","","html-keyboard-response","18","148142","0.0-5.0-1.0-0.0-0.1","664b8ef55422af2817ddcd59","5ec99d7b36e0214b2f821627","664bae99c72e7307f9ff7229","S","A","0","1","g","","null","<div style=""font-size:60px;"">+</div>","null","","","","","","","","","","","","","",""
"","","","","","noisyLetter","19","150699","0.0-5.0-1.0-0.0-1.1","664b8ef55422af2817ddcd59","5ec99d7b36e0214b2f821627","664bae99c72e7307f9ff7229","S","A","0","1","g","","","","f","1399.6000000000931","","","0.35","0","false","practice","0","S","f","true","1","1006.1000000000931",""
"","","","","","html-keyboard-response","20","151513","0.0-5.0-1.0-0.0-0.2","664b8ef55422af2817ddcd59","5ec99d7b36e0214b2f821627","664bae99c72e7307f9ff7229","S","A","0","1","g","","null","<div style=""font-size:60px;"">+</div>","null","","","","","","","","","","","","","",""
"","","","","","noisyLetter","21","155449","0.0-5.0-1.0-0.0-1.2","664b8ef55422af2817ddcd59","5ec99d7b36e0214b2f821627","664bae99c72e7307f9ff7229","S","A","0","1","g","","","","f","2366.399999999907","","","0.35","0","false","practice","0","S","f","true","0.4574074074074074","1429.8000000000466",""
"","","","","","html-keyboard-response","22","156388","0.0-5.0-1.0-0.0-0.3","664b8ef55422af2817ddcd59","5ec99d7b36e0214b2f821627","664bae99c72e7307f9ff7229","S","A","0","1","g","","null","<div style=""font-size:60px;"">+</div>","null","","","","","","","","","","","","","",""
"","","","","","noisyLetter","23","160129","0.0-5.0-1.0-0.0-1.3","664b8ef55422af2817ddcd59","5ec99d7b36e0214b2f821627","664bae99c72e7307f9ff7229","S","A","0","1","g","","","","g","2213.5","","","0.35","0","false","practice","1","S","g","true","0.7037037037037037","1405.1000000000931",""
"","","","","","survey-multi-choice","24","173534","0.0-5.0-1.0-1.0","664b8ef55422af2817ddcd59","5ec99d7b36e0214b2f821627","664bae99c72e7307f9ff7229","S","A","0","1","g","","13403","","{""multichoice_confidence"":""2. very confident that there was no letter in the noise.""}","","","","","","","","","","","","","","[0]"
"","","","","","instructions","25","179117","0.0-6.0","664b8ef55422af2817ddcd59","5ec99d7b36e0214b2f821627","664bae99c72e7307f9ff7229","S","A","0","1","g","[{""page_index"":0,""viewing_time"":4175},{""page_index"":1,""viewing_time"":1408}]","5583","","","","","","","","","","","","","","","",""
"","","","","","html-keyboard-response","26","179921","0.0-7.0-0.0","664b8ef55422af2817ddcd59","5ec99d7b36e0214b2f821627","664bae99c72e7307f9ff7229","S","A","0","1","g","","null","<div style=""font-size:60px;"">+</div>","null","","","","","","","","","","","","","",""
"","","","","","noisyLetter","27","186294","0.0-7.0-1.0","664b8ef55422af2817ddcd59","5ec99d7b36e0214b2f821627","664bae99c72e7307f9ff7229","S","A","0","1","g","","","","f","4764.300000000047","","","0.3","0.1","false","test1","1","S","g","false","0.7055555555555555","1456.5999999998603",""
"","","","","","html-keyboard-response","28","188795","0.0-7.0-2.0","664b8ef55422af2817ddcd59","5ec99d7b36e0214b2f821627","664bae99c72e7307f9ff7229","S","A","0","1","g","","null","<div style=""width:150px;height:56px;border:0px;font-size:30px;text-align:center"">wrong.</div>","null","","","","","","","","","","","","","",""
"","","","","","html-keyboard-response","29","189309","0.0-7.0-0.1","664b8ef55422af2817ddcd59","5ec99d7b36e0214b2f821627","664bae99c72e7307f9ff7229","S","A","0","1","g","","null","<div style=""font-size:60px;"">+</div>","null","","","","","","","","","","","","","",""
"","","","","","noisyLetter","30","196001","0.0-7.0-1.1","664b8ef55422af2817ddcd59","5ec99d7b36e0214b2f821627","664bae99c72e7307f9ff7229","S","A","0","1","g","","","","g","4997.5","","","0.3","0.35","false","test1","1","S","g","true","0.18518518518518523","1224.1999999999534",""
"","","","","","html-keyboard-response","31","197001","0.0-7.0-2.1","664b8ef55422af2817ddcd59","5ec99d7b36e0214b2f821627","664bae99c72e7307f9ff7229","S","A","0","1","g","","null","<div style=""width:150px;height:56px;font-size:30px;text-align:center;"">correct!</div>","null","","","","","","","","","","","","","",""
"","","","","","html-keyboard-response","32","197620","0.0-7.0-0.2","664b8ef55422af2817ddcd59","5ec99d7b36e0214b2f821627","664bae99c72e7307f9ff7229","S","A","0","1","g","","null","<div style=""font-size:60px;"">+</div>","null","","","","","","","","","","","","","",""
"","","","","","noisyLetter","33","200813","0.0-7.0-1.2","664b8ef55422af2817ddcd59","5ec99d7b36e0214b2f821627","664bae99c72e7307f9ff7229","S","A","0","1","g","","","","g","2028","","","0.3","0.35","false","test1","0","S","f","false","0.6592592592592592","1018.1000000000931",""
"","","","","","html-keyboard-response","34","203314","0.0-7.0-2.2","664b8ef55422af2817ddcd59","5ec99d7b36e0214b2f821627","664bae99c72e7307f9ff7229","S","A","0","1","g","","null","<div style=""width:150px;height:56px;border:0px;font-size:30px;text-align:center"">wrong.</div>","null","","","","","","","","","","","","","",""
"","","","","","html-keyboard-response","35","204134","0.0-7.0-0.3","664b8ef55422af2817ddcd59","5ec99d7b36e0214b2f821627","664bae99c72e7307f9ff7229","S","A","0","1","g","","null","<div style=""font-size:60px;"">+</div>","null","","","","","","","","","","","","","",""
"","","","","","noisyLetter","36","207695","0.0-7.0-1.3","664b8ef55422af2817ddcd59","5ec99d7b36e0214b2f821627","664bae99c72e7307f9ff7229","S","A","0","1","g","","","","f","2033.4000000001397","","","0.3","0.1","false","test1","0","S","f","true","0.37222222222222223","1385.8999999999069",""
"","","","","","html-keyboard-response","37","208696","0.0-7.0-2.3","664b8ef55422af2817ddcd59","5ec99d7b36e0214b2f821627","664bae99c72e7307f9ff7229","S","A","0","1","g","","null","<div style=""width:150px;height:56px;font-size:30px;text-align:center;"">correct!</div>","null","","","","","","","","","","","","","",""
"","","","","","html-keyboard-response","38","209508","0.0-7.0-0.4","664b8ef55422af2817ddcd59","5ec99d7b36e0214b2f821627","664bae99c72e7307f9ff7229","S","A","0","1","g","","null","<div style=""font-size:60px;"">+</div>","null","","","","","","","","","","","","","",""
"","","","","","noisyLetter","39","213951","0.0-7.0-1.4","664b8ef55422af2817ddcd59","5ec99d7b36e0214b2f821627","664bae99c72e7307f9ff7229","S","A","0","1","g","","","","f","3327.4000000001397","","","0.3","0.1","false","test1","1","S","g","false","0.6703703703703704","937.3999999999069",""
"","","","","","html-keyboard-response","40","216453","0.0-7.0-2.4","664b8ef55422af2817ddcd59","5ec99d7b36e0214b2f821627","664bae99c72e7307f9ff7229","S","A","0","1","g","","null","<div style=""width:150px;height:56px;border:0px;font-size:30px;text-align:center"">wrong.</div>","null","","","","","","","","","","","","","",""
"","","","","","html-keyboard-response","41","217092","0.0-7.0-0.5","664b8ef55422af2817ddcd59","5ec99d7b36e0214b2f821627","664bae99c72e7307f9ff7229","S","A","0","1","g","","null","<div style=""font-size:60px;"">+</div>","null","","","","","","","","","","","","","",""
"","","","","","noisyLetter","42","222221","0.0-7.0-1.5","664b8ef55422af2817ddcd59","5ec99d7b36e0214b2f821627","664bae99c72e7307f9ff7229","S","A","0","1","g","","","","g","3553.8000000000466","","","0.3","0.35","false","test1","0","S","f","false","0.39629629629629626","1410.6999999999534",""
"","","","","","html-keyboard-response","43","224723","0.0-7.0-2.5","664b8ef55422af2817ddcd59","5ec99d7b36e0214b2f821627","664bae99c72e7307f9ff7229","S","A","0","1","g","","null","<div style=""width:150px;height:56px;border:0px;font-size:30px;text-align:center"">wrong.</div>","null","","","","","","","","","","","","","",""
"","","","","","html-keyboard-response","44","225655","0.0-7.0-0.6","664b8ef55422af2817ddcd59","5ec99d7b36e0214b2f821627","664bae99c72e7307f9ff7229","S","A","0","1","g","","null","<div style=""font-size:60px;"">+</div>","null","","","","","","","","","","","","","",""
"","","","","","noisyLetter","45","229096","0.0-7.0-1.6","664b8ef55422af2817ddcd59","5ec99d7b36e0214b2f821627","664bae99c72e7307f9ff7229","S","A","0","1","g","","","","g","2242","","","0.3","0.1","false","test1","0","S","f","false","0.7703703703703704","1041.6999999999534",""
"","","","","","html-keyboard-response","46","231597","0.0-7.0-2.6","664b8ef55422af2817ddcd59","5ec99d7b36e0214b2f821627","664bae99c72e7307f9ff7229","S","A","0","1","g","","null","<div style=""width:150px;height:56px;border:0px;font-size:30px;text-align:center"">wrong.</div>","null","","","","","","","","","","","","","",""
"","","","","","html-keyboard-response","47","232595","0.0-7.0-0.7","664b8ef55422af2817ddcd59","5ec99d7b36e0214b2f821627","664bae99c72e7307f9ff7229","S","A","0","1","g","","null","<div style=""font-size:60px;"">+</div>","null","","","","","","","","","","","","","",""
"","","","","","noisyLetter","48","235720","0.0-7.0-1.7","664b8ef55422af2817ddcd59","5ec99d7b36e0214b2f821627","664bae99c72e7307f9ff7229","S","A","0","1","g","","","","f","2092","","","0.3","0.35","false","test1","1","S","g","false","0.575925925925926","873.0999999998603",""
"","","","","","html-keyboard-response","49","238222","0.0-7.0-2.7","664b8ef55422af2817ddcd59","5ec99d7b36e0214b2f821627","664bae99c72e7307f9ff7229","S","A","0","1","g","","null","<div style=""width:150px;height:56px;border:0px;font-size:30px;text-align:center"">wrong.</div>","null","","","","","","","","","","","","","",""
"","","","","","html-keyboard-response","50","238913","0.0-7.0-0.8","664b8ef55422af2817ddcd59","5ec99d7b36e0214b2f821627","664bae99c72e7307f9ff7229","S","A","0","1","g","","null","<div style=""font-size:60px;"">+</div>","null","","","","","","","","","","","","","",""
"","","","","","noisyLetter","51","245102","0.0-7.0-1.8","664b8ef55422af2817ddcd59","5ec99d7b36e0214b2f821627","664bae99c72e7307f9ff7229","S","A","0","1","g","","","","f","4507.800000000047","","","0.3","0.35","false","test1","1","S","g","false","0.6407407407407407","1502.8999999999069",""
"","","","","","html-keyboard-response","52","247602","0.0-7.0-2.8","664b8ef55422af2817ddcd59","5ec99d7b36e0214b2f821627","664bae99c72e7307f9ff7229","S","A","0","1","g","","null","<div style=""width:150px;height:56px;border:0px;font-size:30px;text-align:center"">wrong.</div>","null","","","","","","","","","","","","","",""
"","","","","","html-keyboard-response","53","248109","0.0-7.0-0.9","664b8ef55422af2817ddcd59","5ec99d7b36e0214b2f821627","664bae99c72e7307f9ff7229","S","A","0","1","g","","null","<div style=""font-size:60px;"">+</div>","null","","","","","","","","","","","","","",""
"","","","","","noisyLetter","54","253976","0.0-7.0-1.9","664b8ef55422af2817ddcd59","5ec99d7b36e0214b2f821627","664bae99c72e7307f9ff7229","S","A","0","1","g","","","","f","4741.09999999986","","","0.3","0.1","false","test1","0","S","f","true","0.6722222222222223","965.1000000000931",""
"","","","","","html-keyboard-response","55","254977","0.0-7.0-2.9","664b8ef55422af2817ddcd59","5ec99d7b36e0214b2f821627","664bae99c72e7307f9ff7229","S","A","0","1","g","","null","<div style=""width:150px;height:56px;font-size:30px;text-align:center;"">correct!</div>","null","","","","","","","","","","","","","",""
"","","","","","html-keyboard-response","56","255629","0.0-7.0-0.10","664b8ef55422af2817ddcd59","5ec99d7b36e0214b2f821627","664bae99c72e7307f9ff7229","S","A","0","1","g","","null","<div style=""font-size:60px;"">+</div>","null","","","","","","","","","","","","","",""
"","","","","","noisyLetter","57","258379","0.0-7.0-1.10","664b8ef55422af2817ddcd59","5ec99d7b36e0214b2f821627","664bae99c72e7307f9ff7229","S","A","0","1","g","","","","f","1904","","","0.3","0.1","false","test1","1","S","g","false","1","721.9000000001397",""
"","","","","","html-keyboard-response","58","260880","0.0-7.0-2.10","664b8ef55422af2817ddcd59","5ec99d7b36e0214b2f821627","664bae99c72e7307f9ff7229","S","A","0","1","g","","null","<div style=""width:150px;height:56px;border:0px;font-size:30px;text-align:center"">wrong.</div>","null","","","","","","","","","","","","","",""
"","","","","","html-keyboard-response","59","261579","0.0-7.0-0.11","664b8ef55422af2817ddcd59","5ec99d7b36e0214b2f821627","664bae99c72e7307f9ff7229","S","A","0","1","g","","null","<div style=""font-size:60px;"">+</div>","null","","","","","","","","","","","","","",""
"","","","","","noisyLetter","60","264448","0.0-7.0-1.11","664b8ef55422af2817ddcd59","5ec99d7b36e0214b2f821627","664bae99c72e7307f9ff7229","S","A","0","1","g","","","","f","1955.0999999998603","","","0.3","0.35","false","test1","0","S","f","true","0.6518518518518519","747.2000000001863",""
"","","","","","html-keyboard-response","61","265449","0.0-7.0-2.11","664b8ef55422af2817ddcd59","5ec99d7b36e0214b2f821627","664bae99c72e7307f9ff7229","S","A","0","1","g","","null","<div style=""width:150px;height:56px;font-size:30px;text-align:center;"">correct!</div>","null","","","","","","","","","","","","","",""
"","","","","","html-keyboard-response","62","265972","0.0-7.0-0.12","664b8ef55422af2817ddcd59","5ec99d7b36e0214b2f821627","664bae99c72e7307f9ff7229","S","A","0","1","g","","null","<div style=""font-size:60px;"">+</div>","null","","","","","","","","","","","","","",""
"","","","","","noisyLetter","63","270725","0.0-7.0-1.12","664b8ef55422af2817ddcd59","5ec99d7b36e0214b2f821627","664bae99c72e7307f9ff7229","S","A","0","1","g","","","","g","3907","","","0.3","0.1","false","test1","1","S","g","true","0.7","707.0999999998603",""
"","","","","","html-keyboard-response","64","271726","0.0-7.0-2.12","664b8ef55422af2817ddcd59","5ec99d7b36e0214b2f821627","664bae99c72e7307f9ff7229","S","A","0","1","g","","null","<div style=""width:150px;height:56px;font-size:30px;text-align:center;"">correct!</div>","null","","","","","","","","","","","","","",""
"","","","","","html-keyboard-response","65","272659","0.0-7.0-0.13","664b8ef55422af2817ddcd59","5ec99d7b36e0214b2f821627","664bae99c72e7307f9ff7229","S","A","0","1","g","","null","<div style=""font-size:60px;"">+</div>","null","","","","","","","","","","","","","",""
"","","","","","noisyLetter","66","275093","0.0-7.0-1.13","664b8ef55422af2817ddcd59","5ec99d7b36e0214b2f821627","664bae99c72e7307f9ff7229","S","A","0","1","g","","","","g","1730.8000000000466","","","0.3","0.35","false","test1","1","S","g","true","0.8055555555555556","582.1000000000931",""
"","","","","","html-keyboard-response","67","276093","0.0-7.0-2.13","664b8ef55422af2817ddcd59","5ec99d7b36e0214b2f821627","664bae99c72e7307f9ff7229","S","A","0","1","g","","null","<div style=""width:150px;height:56px;font-size:30px;text-align:center;"">correct!</div>","null","","","","","","","","","","","","","",""
"","","","","","html-keyboard-response","68","277043","0.0-7.0-0.14","664b8ef55422af2817ddcd59","5ec99d7b36e0214b2f821627","664bae99c72e7307f9ff7229","S","A","0","1","g","","null","<div style=""font-size:60px;"">+</div>","null","","","","","","","","","","","","","",""
"","","","","","noisyLetter","69","279301","0.0-7.0-1.14","664b8ef55422af2817ddcd59","5ec99d7b36e0214b2f821627","664bae99c72e7307f9ff7229","S","A","0","1","g","","","","f","1631.1999999999534","","","0.3","0.35","false","test1","0","S","f","true","0.6870370370370371","496",""
"","","","","","html-keyboard-response","70","280302","0.0-7.0-2.14","664b8ef55422af2817ddcd59","5ec99d7b36e0214b2f821627","664bae99c72e7307f9ff7229","S","A","0","1","g","","null","<div style=""width:150px;height:56px;font-size:30px;text-align:center;"">correct!</div>","null","","","","","","","","","","","","","",""
"","","","","","html-keyboard-response","71","280947","0.0-7.0-0.15","664b8ef55422af2817ddcd59","5ec99d7b36e0214b2f821627","664bae99c72e7307f9ff7229","S","A","0","1","g","","null","<div style=""font-size:60px;"">+</div>","null","","","","","","","","","","","","","",""
"","","","","","noisyLetter","72","283509","0.0-7.0-1.15","664b8ef55422af2817ddcd59","5ec99d7b36e0214b2f821627","664bae99c72e7307f9ff7229","S","A","0","1","g","","","","f","1563.3000000000466","","","0.3","0.1","false","test1","0","S","f","true","0.7037037037037037","874.5999999998603",""
"","","","","","html-keyboard-response","73","284509","0.0-7.0-2.15","664b8ef55422af2817ddcd59","5ec99d7b36e0214b2f821627","664bae99c72e7307f9ff7229","S","A","0","1","g","","null","<div style=""width:150px;height:56px;font-size:30px;text-align:center;"">correct!</div>","null","","","","","","","","","","","","","",""
"","","","","","instructions","74","290887","0.0-8.0","664b8ef55422af2817ddcd59","5ec99d7b36e0214b2f821627","664bae99c72e7307f9ff7229","S","A","0","1","g","[{""page_index"":0,""viewing_time"":6377}]","6377","","","","","","","","","","","","","","","",""
"","","","","","html-keyboard-response","75","291569","0.0-9.0-0.0","664b8ef55422af2817ddcd59","5ec99d7b36e0214b2f821627","664bae99c72e7307f9ff7229","S","A","0","1","g","","null","<div style=""font-size:60px;"">+</div>","null","","","","","","","","","","","","","",""
"","","","","","noisyLetter","76","293939","0.0-9.0-1.0","664b8ef55422af2817ddcd59","5ec99d7b36e0214b2f821627","664bae99c72e7307f9ff7229","S","A","0","1","g","","","","f","1767.6000000000931","","","0.3","0.1","false","test1","0","S","f","true","0.8425925925925926","434.69999999995343",""
"","","","","","html-keyboard-response","77","294940","0.0-9.0-2.0","664b8ef55422af2817ddcd59","5ec99d7b36e0214b2f821627","664bae99c72e7307f9ff7229","S","A","0","1","g","","null","<div style=""width:150px;height:56px;font-size:30px;text-align:center;"">correct!</div>","null","","","","","","","","","","","","","",""
"","","","","","html-keyboard-response","78","295677","0.0-9.0-0.1","664b8ef55422af2817ddcd59","5ec99d7b36e0214b2f821627","664bae99c72e7307f9ff7229","S","A","0","1","g","","null","<div style=""font-size:60px;"">+</div>","null","","","","","","","","","","","","","",""
"","","","","","noisyLetter","79","298612","0.0-9.0-1.1","664b8ef55422af2817ddcd59","5ec99d7b36e0214b2f821627","664bae99c72e7307f9ff7229","S","A","0","1","g","","","","g","2138","","","0.3","0.35","false","test1","1","S","g","true","0.737037037037037","651.1000000000931",""
"","","","","","html-keyboard-response","80","299613","0.0-9.0-2.1","664b8ef55422af2817ddcd59","5ec99d7b36e0214b2f821627","664bae99c72e7307f9ff7229","S","A","0","1","g","","null","<div style=""width:150px;height:56px;font-size:30px;text-align:center;"">correct!</div>","null","","","","","","","","","","","","","",""
"","","","","","html-keyboard-response","81","300350","0.0-9.0-0.2","664b8ef55422af2817ddcd59","5ec99d7b36e0214b2f821627","664bae99c72e7307f9ff7229","S","A","0","1","g","","null","<div style=""font-size:60px;"">+</div>","null","","","","","","","","","","","","","",""
"","","","","","noisyLetter","82","302542","0.0-9.0-1.2","664b8ef55422af2817ddcd59","5ec99d7b36e0214b2f821627","664bae99c72e7307f9ff7229","S","A","0","1","g","","","","g","1585.5","","","0.3","0.1","false","test1","1","S","g","true","0.7555555555555555","427.5",""
"","","","","","html-keyboard-response","83","303544","0.0-9.0-2.2","664b8ef55422af2817ddcd59","5ec99d7b36e0214b2f821627","664bae99c72e7307f9ff7229","S","A","0","1","g","","null","<div style=""width:150px;height:56px;font-size:30px;text-align:center;"">correct!</div>","null","","","","","","","","","","","","","",""
"","","","","","html-keyboard-response","84","304202","0.0-9.0-0.3","664b8ef55422af2817ddcd59","5ec99d7b36e0214b2f821627","664bae99c72e7307f9ff7229","S","A","0","1","g","","null","<div style=""font-size:60px;"">+</div>","null","","","","","","","","","","","","","",""
"","","","","","noisyLetter","85","306951","0.0-9.0-1.3","664b8ef55422af2817ddcd59","5ec99d7b36e0214b2f821627","664bae99c72e7307f9ff7229","S","A","0","1","g","","","","f","1635","","","0.3","0.35","false","test1","0","S","f","true","0.912962962962963","934.8000000000466",""
"","","","","","html-keyboard-response","86","307953","0.0-9.0-2.3","664b8ef55422af2817ddcd59","5ec99d7b36e0214b2f821627","664bae99c72e7307f9ff7229","S","A","0","1","g","","null","<div style=""width:150px;height:56px;font-size:30px;text-align:center;"">correct!</div>","null","","","","","","","","","","","","","",""
"","","","","","html-keyboard-response","87","308753","0.0-9.0-0.4","664b8ef55422af2817ddcd59","5ec99d7b36e0214b2f821627","664bae99c72e7307f9ff7229","S","A","0","1","g","","null","<div style=""font-size:60px;"">+</div>","null","","","","","","","","","","","","","",""
"","","","","","noisyLetter","88","311006","0.0-9.0-1.4","664b8ef55422af2817ddcd59","5ec99d7b36e0214b2f821627","664bae99c72e7307f9ff7229","S","A","0","1","g","","","","g","1372.9000000001397","","","0.3","0.35","false","test1","1","S","g","true","0.8166666666666667","752.3000000000466",""
"","","","","","html-keyboard-response","89","312008","0.0-9.0-2.4","664b8ef55422af2817ddcd59","5ec99d7b36e0214b2f821627","664bae99c72e7307f9ff7229","S","A","0","1","g","","null","<div style=""width:150px;height:56px;font-size:30px;text-align:center;"">correct!</div>","null","","","","","","","","","","","","","",""
"","","","","","html-keyboard-response","90","312905","0.0-9.0-0.5","664b8ef55422af2817ddcd59","5ec99d7b36e0214b2f821627","664bae99c72e7307f9ff7229","S","A","0","1","g","","null","<div style=""font-size:60px;"">+</div>","null","","","","","","","","","","","","","",""
"","","","","","noisyLetter","91","315048","0.0-9.0-1.5","664b8ef55422af2817ddcd59","5ec99d7b36e0214b2f821627","664bae99c72e7307f9ff7229","S","A","0","1","g","","","","g","1344.5","","","0.3","0.1","false","test1","1","S","g","true","1","756.8999999999069",""
"","","","","","html-keyboard-response","92","316050","0.0-9.0-2.5","664b8ef55422af2817ddcd59","5ec99d7b36e0214b2f821627","664bae99c72e7307f9ff7229","S","A","0","1","g","","null","<div style=""width:150px;height:56px;font-size:30px;text-align:center;"">correct!</div>","null","","","","","","","","","","","","","",""
"","","","","","html-keyboard-response","93","316606","0.0-9.0-0.6","664b8ef55422af2817ddcd59","5ec99d7b36e0214b2f821627","664bae99c72e7307f9ff7229","S","A","0","1","g","","null","<div style=""font-size:60px;"">+</div>","null","","","","","","","","","","","","","",""
"","","","","","noisyLetter","94","318930","0.0-9.0-1.6","664b8ef55422af2817ddcd59","5ec99d7b36e0214b2f821627","664bae99c72e7307f9ff7229","S","A","0","1","g","","","","f","1493.8000000000466","","","0.3","0.35","false","test1","0","S","f","true","0.7240740740740741","763.8999999999069",""
"","","","","","html-keyboard-response","95","319931","0.0-9.0-2.6","664b8ef55422af2817ddcd59","5ec99d7b36e0214b2f821627","664bae99c72e7307f9ff7229","S","A","0","1","g","","null","<div style=""width:150px;height:56px;font-size:30px;text-align:center;"">correct!</div>","null","","","","","","","","","","","","","",""
"","","","","","html-keyboard-response","96","320489","0.0-9.0-0.7","664b8ef55422af2817ddcd59","5ec99d7b36e0214b2f821627","664bae99c72e7307f9ff7229","S","A","0","1","g","","null","<div style=""font-size:60px;"">+</div>","null","","","","","","","","","","","","","",""
"","","","","","noisyLetter","97","323235","0.0-9.0-1.7","664b8ef55422af2817ddcd59","5ec99d7b36e0214b2f821627","664bae99c72e7307f9ff7229","S","A","0","1","g","","","","g","1846.6000000000931","","","0.3","0.1","false","test1","0","S","f","false","0.674074074074074","737.5999999998603",""
"","","","","","html-keyboard-response","98","325736","0.0-9.0-2.7","664b8ef55422af2817ddcd59","5ec99d7b36e0214b2f821627","664bae99c72e7307f9ff7229","S","A","0","1","g","","null","<div style=""width:150px;height:56px;border:0px;font-size:30px;text-align:center"">wrong.</div>","null","","","","","","","","","","","","","",""
"","","","","","html-keyboard-response","99","326563","0.0-9.0-0.8","664b8ef55422af2817ddcd59","5ec99d7b36e0214b2f821627","664bae99c72e7307f9ff7229","S","A","0","1","g","","null","<div style=""font-size:60px;"">+</div>","null","","","","","","","","","","","","","",""
"","","","","","noisyLetter","100","328998","0.0-9.0-1.8","664b8ef55422af2817ddcd59","5ec99d7b36e0214b2f821627","664bae99c72e7307f9ff7229","S","A","0","1","g","","","","g","1544.3999999999069","","","0.3","0.1","false","test1","1","S","g","true","0.4925925925925926","732.6000000000931",""
"","","","","","html-keyboard-response","101","330000","0.0-9.0-2.8","664b8ef55422af2817ddcd59","5ec99d7b36e0214b2f821627","664bae99c72e7307f9ff7229","S","A","0","1","g","","null","<div style=""width:150px;height:56px;font-size:30px;text-align:center;"">correct!</div>","null","","","","","","","","","","","","","",""
"","","","","","html-keyboard-response","102","330532","0.0-9.0-0.9","664b8ef55422af2817ddcd59","5ec99d7b36e0214b2f821627","664bae99c72e7307f9ff7229","S","A","0","1","g","","null","<div style=""font-size:60px;"">+</div>","null","","","","","","","","","","","","","",""
