"success","timeout","failed_images","failed_audio","failed_video","trial_type","trial_index","time_elapsed","internal_node_id","STUDY_ID","PROLIFIC_PID","SESSION_ID","rt","view_history","shapes","occluder","options","response","RT","confidence","confidence_RT"
"true","false","[]","[]","[]","preload","0","40","0.0-0.0","665ca2f40cef08da33075320","58bef6fd31de840001e84ba0","665dab28e2ac4b0ad6674879","","","","","","","","",""
"true","","","","","fullscreen","1","5799","0.0-1.0","665ca2f40cef08da33075320","58bef6fd31de840001e84ba0","665dab28e2ac4b0ad6674879","4754","","","","","","","",""
"","","","","","instructions","2","96167","0.0-2.0","665ca2f40cef08da33075320","58bef6fd31de840001e84ba0","665dab28e2ac4b0ad6674879","90368","[{""page_index"":0,""viewing_time"":6127},{""page_index"":1,""viewing_time"":58343},{""page_index"":2,""viewing_time"":14835},{""page_index"":3,""viewing_time"":7833},{""page_index"":4,""viewing_time"":3230}]","","","","","","",""
"","","","","","jsShapes","3","145421","0.0-3.0-0.0","665ca2f40cef08da33075320","58bef6fd31de840001e84ba0","665dab28e2ac4b0ad6674879","","","[4,0]","right","[0,1]","1","45191.200000047684","0.011111111111111072","4019.4000000953674"
"","","","","","jsShapes","4","219971","0.0-3.0-0.1","665ca2f40cef08da33075320","58bef6fd31de840001e84ba0","665dab28e2ac4b0ad6674879","","","[2,0]","left","[1,0]","0","66796.09999990463","1","7739.400000095367"
"","","","","","jsShapes","5","241159","0.0-3.0-0.2","665ca2f40cef08da33075320","58bef6fd31de840001e84ba0","665dab28e2ac4b0ad6674879","","","[0,1]","left","[0,2]","0","19909.5","1","1272.2999999523163"
"","","","","","jsShapes","6","255342","0.0-3.0-0.3","665ca2f40cef08da33075320","58bef6fd31de840001e84ba0","665dab28e2ac4b0ad6674879","","","[0,1]","right","[1,4]","0","12494","1","1685.7000000476837"
"","","","","","jsShapes","7","271506","0.0-3.0-0.4","665ca2f40cef08da33075320","58bef6fd31de840001e84ba0","665dab28e2ac4b0ad6674879","","","[0,1]","left","[4,0]","1","13392.5","1","2767"
"","","","","","jsShapes","8","296962","0.0-3.0-0.5","665ca2f40cef08da33075320","58bef6fd31de840001e84ba0","665dab28e2ac4b0ad6674879","","","[2,0]","right","[4,1]","0","22757.900000095367","0","2691.0999999046326"
"","","","","","jsShapes","9","306777","0.0-3.0-0.6","665ca2f40cef08da33075320","58bef6fd31de840001e84ba0","665dab28e2ac4b0ad6674879","","","[0,1]","right","[1,4]","0","7792.5","1","2014.5"
"","","","","","jsShapes","10","325766","0.0-3.0-0.7","665ca2f40cef08da33075320","58bef6fd31de840001e84ba0","665dab28e2ac4b0ad6674879","","","[4,3]","left","[0,1]","1","16005.299999952316","1","2971.2000000476837"
"","","","","","jsShapes","11","334465","0.0-3.0-0.8","665ca2f40cef08da33075320","58bef6fd31de840001e84ba0","665dab28e2ac4b0ad6674879","","","[0,1]","left","[3,0]","1","7307.5","1","1377.1999998092651"
"","","","","","jsShapes","12","350496","0.0-3.0-0.9","665ca2f40cef08da33075320","58bef6fd31de840001e84ba0","665dab28e2ac4b0ad6674879","","","[3,3]","right","[2,1]","0","14155.700000047684","0","1859.2000000476837"
"","","","","","jsShapes","13","363745","0.0-3.0-0.10","665ca2f40cef08da33075320","58bef6fd31de840001e84ba0","665dab28e2ac4b0ad6674879","","","[3,4]","left","[0,3]","1","11731.599999904633","1","1512.4000000953674"
"","","","","","jsShapes","14","368861","0.0-3.0-0.11","665ca2f40cef08da33075320","58bef6fd31de840001e84ba0","665dab28e2ac4b0ad6674879","","","[0,1]","right","[1,4]","0","3070.399999856949","1","2028.7000000476837"
"","","","","","jsShapes","15","373827","0.0-3.0-0.12","665ca2f40cef08da33075320","58bef6fd31de840001e84ba0","665dab28e2ac4b0ad6674879","","","[0,1]","right","[2,1]","1","3564.5","1","1391.7000000476837"
"","","","","","jsShapes","16","390208","0.0-3.0-0.13","665ca2f40cef08da33075320","58bef6fd31de840001e84ba0","665dab28e2ac4b0ad6674879","","","[4,0]","left","[1,0]","0","14499.199999809265","1","1874.3000001907349"
"","","","","","jsShapes","17","396400","0.0-3.0-0.14","665ca2f40cef08da33075320","58bef6fd31de840001e84ba0","665dab28e2ac4b0ad6674879","","","[0,1]","left","[0,1]","0","4298.699999809265","1","1887.9000000953674"
"","","","","","jsShapes","18","410947","0.0-3.0-0.15","665ca2f40cef08da33075320","58bef6fd31de840001e84ba0","665dab28e2ac4b0ad6674879","","","[3,2]","right","[4,1]","0","12941.599999904633","0","1597.5"
"","","","","","survey-text","19","415985","0.0-4.0","665ca2f40cef08da33075320","58bef6fd31de840001e84ba0","665dab28e2ac4b0ad6674879","5033","","","","","{""worker_comments"":""""}","","",""
"","","","","","instructions","20","419902","0.0-5.0","665ca2f40cef08da33075320","58bef6fd31de840001e84ba0","665dab28e2ac4b0ad6674879","3917","[{""page_index"":0,""viewing_time"":3916}]","","","","","","",""
"success","timeout","failed_images","failed_audio","failed_video","trial_type","trial_index","time_elapsed","internal_node_id","STUDY_ID","PROLIFIC_PID","SESSION_ID","rt","view_history","shapes","occluder","options","response","RT","confidence","confidence_RT"
"true","false","[]","[]","[]","preload","0","219","0.0-0.0","665ca2f40cef08da33075320","60c1de8dacf1232623aa3e29","665ca53e4fa57fdf6f53a41d","","","","","","","","",""
"true","","","","","fullscreen","1","12824","0.0-1.0","665ca2f40cef08da33075320","60c1de8dacf1232623aa3e29","665ca53e4fa57fdf6f53a41d","11600","","","","","","","",""
"","","","","","instructions","2","71066","0.0-2.0","665ca2f40cef08da33075320","60c1de8dacf1232623aa3e29","665ca53e4fa57fdf6f53a41d","58414","[{""page_index"":0,""viewing_time"":10154},{""page_index"":1,""viewing_time"":24614},{""page_index"":2,""viewing_time"":18749},{""page_index"":3,""viewing_time"":3778},{""page_index"":4,""viewing_time"":1119}]","","","","","","",""
"","","","","","jsShapes","3","94114","0.0-3.0-0.0","665ca2f40cef08da33075320","60c1de8dacf1232623aa3e29","665ca53e4fa57fdf6f53a41d","","","[4,2]","right","[1,0]","0","17579.69999999553","0.36","5450.70000000298"
"","","","","","jsShapes","4","111763","0.0-3.0-0.1","665ca2f40cef08da33075320","60c1de8dacf1232623aa3e29","665ca53e4fa57fdf6f53a41d","","","[0,1]","left","[3,0]","1","14045.09999999404","0.19777777777777783","3599.3000000044703"
"","","","","","jsShapes","5","135744","0.0-3.0-0.2","665ca2f40cef08da33075320","60c1de8dacf1232623aa3e29","665ca53e4fa57fdf6f53a41d","","","[2,4]","left","[4,0]","1","21722.89999999851","0.15333333333333332","2255.5"
"","","","","","jsShapes","6","148111","0.0-3.0-0.3","665ca2f40cef08da33075320","60c1de8dacf1232623aa3e29","665ca53e4fa57fdf6f53a41d","","","[0,1]","right","[4,1]","1","10575.19999999553","0.35111111111111115","1788.5"
"","","","","","jsShapes","7","158210","0.0-3.0-0.4","665ca2f40cef08da33075320","60c1de8dacf1232623aa3e29","665ca53e4fa57fdf6f53a41d","","","[3,3]","right","[2,1]","0","8746.79999999702","0.36888888888888893","1349.5"
"","","","","","jsShapes","8","171076","0.0-3.0-0.5","665ca2f40cef08da33075320","60c1de8dacf1232623aa3e29","665ca53e4fa57fdf6f53a41d","","","[0,1]","left","[0,2]","0","11230.5","0.37111111111111106","1632.6999999955297"
"","","","","","jsShapes","9","183043","0.0-3.0-0.6","665ca2f40cef08da33075320","60c1de8dacf1232623aa3e29","665ca53e4fa57fdf6f53a41d","","","[2,4]","left","[2,0]","0","10839.5","0.2088888888888889","1124.6000000014901"
"","","","","","jsShapes","10","192026","0.0-3.0-0.7","665ca2f40cef08da33075320","60c1de8dacf1232623aa3e29","665ca53e4fa57fdf6f53a41d","","","[0,1]","right","[1,2]","0","7304.39999999851","0.24222222222222223","1676.4000000059605"
"","","","","","jsShapes","11","230158","0.0-3.0-0.8","665ca2f40cef08da33075320","60c1de8dacf1232623aa3e29","665ca53e4fa57fdf6f53a41d","","","[3,4]","left","[0,1]","0","36271.79999999702","0.19111111111111112","1857.5"
"","","","","","jsShapes","12","245440","0.0-3.0-0.9","665ca2f40cef08da33075320","60c1de8dacf1232623aa3e29","665ca53e4fa57fdf6f53a41d","","","[3,4]","right","[1,0]","1","14022.20000000298","0.3533333333333334","1256.7999999970198"
"","","","","","jsShapes","13","266574","0.0-3.0-0.10","665ca2f40cef08da33075320","60c1de8dacf1232623aa3e29","665ca53e4fa57fdf6f53a41d","","","[0,1]","right","[1,4]","0","16230.70000000298","0.44666666666666666","4900"
"","","","","","jsShapes","14","291072","0.0-3.0-0.11","665ca2f40cef08da33075320","60c1de8dacf1232623aa3e29","665ca53e4fa57fdf6f53a41d","","","[0,1]","left","[0,4]","0","23153.89999999851","0.21111111111111114","1342.3999999985099"
"","","","","","jsShapes","15","304222","0.0-3.0-0.12","665ca2f40cef08da33075320","60c1de8dacf1232623aa3e29","665ca53e4fa57fdf6f53a41d","","","[0,1]","left","[0,1]","0","12030.60000000149","0.21111111111111114","1114.8999999985099"
"","","","","","jsShapes","16","312337","0.0-3.0-0.13","665ca2f40cef08da33075320","60c1de8dacf1232623aa3e29","665ca53e4fa57fdf6f53a41d","","","[0,1]","right","[4,1]","1","6763.30000000447","0.21777777777777774","1348.7999999970198"
"","","","","","jsShapes","17","318172","0.0-3.0-0.14","665ca2f40cef08da33075320","60c1de8dacf1232623aa3e29","665ca53e4fa57fdf6f53a41d","","","[4,0]","left","[3,0]","0","4641.10000000149","0.21777777777777774","1184.7999999970198"
"","","","","","jsShapes","18","326788","0.0-3.0-0.15","665ca2f40cef08da33075320","60c1de8dacf1232623aa3e29","665ca53e4fa57fdf6f53a41d","","","[4,4]","right","[1,4]","1","7232","0.21777777777777774","1380.1999999955297"
"","","","","","survey-text","19","336814","0.0-4.0","665ca2f40cef08da33075320","60c1de8dacf1232623aa3e29","665ca53e4fa57fdf6f53a41d","10018","","","","","{""worker_comments"":""n/a""}","","",""
"","","","","","instructions","20","341691","0.0-5.0","665ca2f40cef08da33075320","60c1de8dacf1232623aa3e29","665ca53e4fa57fdf6f53a41d","4876","[{""page_index"":0,""viewing_time"":4876}]","","","","","","",""
"success","timeout","failed_images","failed_audio","failed_video","trial_type","trial_index","time_elapsed","internal_node_id","STUDY_ID","PROLIFIC_PID","SESSION_ID","rt","view_history","shapes","occluder","options","response","RT","confidence","confidence_RT"
"true","false","[]","[]","[]","preload","0","27","0.0-0.0","665ca2f40cef08da33075320","5b5f9f40080ab40001fb6eb4","665ca922e8741baefff7cf29","","","","","","","","",""
"true","","","","","fullscreen","1","11587","0.0-1.0","665ca2f40cef08da33075320","5b5f9f40080ab40001fb6eb4","665ca922e8741baefff7cf29","10550","","","","","","","",""
"","","","","","instructions","2","58223","0.0-2.0","665ca2f40cef08da33075320","5b5f9f40080ab40001fb6eb4","665ca922e8741baefff7cf29","46636","[{""page_index"":0,""viewing_time"":2667},{""page_index"":1,""viewing_time"":32326},{""page_index"":2,""viewing_time"":8625},{""page_index"":3,""viewing_time"":1800},{""page_index"":4,""viewing_time"":1218}]","","","","","","",""
"","","","","","jsShapes","3","73598","0.0-3.0-0.0","665ca2f40cef08da33075320","5b5f9f40080ab40001fb6eb4","665ca922e8741baefff7cf29","","","[0,1]","right","[1,2]","1","12968","0.42638888888888893","2398"
"","","","","","jsShapes","4","83682","0.0-3.0-0.1","665ca2f40cef08da33075320","5b5f9f40080ab40001fb6eb4","665ca922e8741baefff7cf29","","","[1,4]","right","[4,1]","0","8729","0.3597222222222223","1348"
"","","","","","jsShapes","5","96773","0.0-3.0-0.2","665ca2f40cef08da33075320","5b5f9f40080ab40001fb6eb4","665ca922e8741baefff7cf29","","","[3,2]","left","[2,0]","0","11132","0.37083333333333335","1955"
"","","","","","jsShapes","6","108808","0.0-3.0-0.3","665ca2f40cef08da33075320","5b5f9f40080ab40001fb6eb4","665ca922e8741baefff7cf29","","","[0,1]","left","[0,2]","1","11140","0.39861111111111114","884"
"","","","","","jsShapes","7","133192","0.0-3.0-0.4","665ca2f40cef08da33075320","5b5f9f40080ab40001fb6eb4","665ca922e8741baefff7cf29","","","[1,0]","left","[0,3]","1","23373","0.35277777777777775","999"
"","","","","","jsShapes","8","140011","0.0-3.0-0.5","665ca2f40cef08da33075320","5b5f9f40080ab40001fb6eb4","665ca922e8741baefff7cf29","","","[0,1]","left","[0,2]","0","5674","0.5680555555555555","1136"
"","","","","","jsShapes","9","150255","0.0-3.0-0.6","665ca2f40cef08da33075320","5b5f9f40080ab40001fb6eb4","665ca922e8741baefff7cf29","","","[2,2]","right","[2,1]","0","9252","0.35277777777777775","987"
"","","","","","jsShapes","10","153977","0.0-3.0-0.7","665ca2f40cef08da33075320","5b5f9f40080ab40001fb6eb4","665ca922e8741baefff7cf29","","","[0,1]","right","[2,1]","1","3014","0.8847222222222222","698"
"","","","","","jsShapes","11","158297","0.0-3.0-0.8","665ca2f40cef08da33075320","5b5f9f40080ab40001fb6eb4","665ca922e8741baefff7cf29","","","[0,1]","left","[0,2]","0","3435","0.7625","872"
"","","","","","jsShapes","12","163638","0.0-3.0-0.9","665ca2f40cef08da33075320","5b5f9f40080ab40001fb6eb4","665ca922e8741baefff7cf29","","","[4,0]","left","[4,0]","0","4067","0.41666666666666663","1258"
"","","","","","jsShapes","13","167701","0.0-3.0-0.10","665ca2f40cef08da33075320","5b5f9f40080ab40001fb6eb4","665ca922e8741baefff7cf29","","","[0,1]","right","[0,1]","1","2713","0.8138888888888889","1341"
"","","","","","jsShapes","14","172110","0.0-3.0-0.11","665ca2f40cef08da33075320","5b5f9f40080ab40001fb6eb4","665ca922e8741baefff7cf29","","","[3,2]","right","[1,0]","1","3240","0.44305555555555554","1149"
"","","","","","jsShapes","15","177291","0.0-3.0-0.12","665ca2f40cef08da33075320","5b5f9f40080ab40001fb6eb4","665ca922e8741baefff7cf29","","","[2,4]","left","[4,0]","0","4104","0.8527777777777777","1055"
"","","","","","jsShapes","16","185459","0.0-3.0-0.13","665ca2f40cef08da33075320","5b5f9f40080ab40001fb6eb4","665ca922e8741baefff7cf29","","","[2,4]","right","[1,0]","1","7054","0.3652777777777778","1105"
"","","","","","jsShapes","17","190951","0.0-3.0-0.14","665ca2f40cef08da33075320","5b5f9f40080ab40001fb6eb4","665ca922e8741baefff7cf29","","","[0,1]","left","[3,0]","1","4637","0.8555555555555556","851"
"","","","","","jsShapes","18","193813","0.0-3.0-0.15","665ca2f40cef08da33075320","5b5f9f40080ab40001fb6eb4","665ca922e8741baefff7cf29","","","[0,1]","right","[1,2]","0","1784","0.875","1073"
"","","","","","survey-text","19","202214","0.0-4.0","665ca2f40cef08da33075320","5b5f9f40080ab40001fb6eb4","665ca922e8741baefff7cf29","8398","","","","","{""worker_comments"":""Thanks!""}","","",""
"","","","","","instructions","20","204256","0.0-5.0","665ca2f40cef08da33075320","5b5f9f40080ab40001fb6eb4","665ca922e8741baefff7cf29","2042","[{""page_index"":0,""viewing_time"":2042}]","","","","","","",""
"success","timeout","failed_images","failed_audio","failed_video","trial_type","trial_index","time_elapsed","internal_node_id","STUDY_ID","PROLIFIC_PID","SESSION_ID","rt","view_history","shapes","occluder","options","response","RT","confidence","confidence_RT"
"true","false","[]","[]","[]","preload","0","169","0.0-0.0","665ca2f40cef08da33075320","65c50b3547f20f00b2aeeb58","665ca925f76e8e04ef2989f7","","","","","","","","",""
"true","","","","","fullscreen","1","3153","0.0-1.0","665ca2f40cef08da33075320","65c50b3547f20f00b2aeeb58","665ca925f76e8e04ef2989f7","1981","","","","","","","",""
"","","","","","instructions","2","40824","0.0-2.0","665ca2f40cef08da33075320","65c50b3547f20f00b2aeeb58","665ca925f76e8e04ef2989f7","37671","[{""page_index"":0,""viewing_time"":3839},{""page_index"":1,""viewing_time"":11184},{""page_index"":2,""viewing_time"":16992},{""page_index"":3,""viewing_time"":3584},{""page_index"":4,""viewing_time"":2072}]","","","","","","",""
"","","","","","jsShapes","3","63572","0.0-3.0-0.0","665ca2f40cef08da33075320","65c50b3547f20f00b2aeeb58","665ca925f76e8e04ef2989f7","","","[2,2]","right","[1,4]","1","14859.400000002235","0.9074074074074074","7878.89999999851"
"","","","","","jsShapes","4","69038","0.0-3.0-0.1","665ca2f40cef08da33075320","65c50b3547f20f00b2aeeb58","665ca925f76e8e04ef2989f7","","","[0,1]","right","[1,2]","0","2849.699999999255","1","2599.300000000745"
"","","","","","jsShapes","5","80572","0.0-3.0-0.2","665ca2f40cef08da33075320","65c50b3547f20f00b2aeeb58","665ca925f76e8e04ef2989f7","","","[0,1]","left","[4,0]","1","8024.29999999702","0.6458333333333333","3494.60000000149"
"","","","","","jsShapes","6","85988","0.0-3.0-0.3","665ca2f40cef08da33075320","65c50b3547f20f00b2aeeb58","665ca925f76e8e04ef2989f7","","","[2,3]","left","[0,2]","1","3547.199999999255","0","1862.6000000014901"
"","","","","","jsShapes","7","89888","0.0-3.0-0.4","665ca2f40cef08da33075320","65c50b3547f20f00b2aeeb58","665ca925f76e8e04ef2989f7","","","[0,1]","right","[1,3]","0","2349.099999997765","1","1534.300000000745"
"","","","","","jsShapes","8","94405","0.0-3.0-0.5","665ca2f40cef08da33075320","65c50b3547f20f00b2aeeb58","665ca925f76e8e04ef2989f7","","","[0,1]","left","[2,0]","1","3158.7000000029802","0.7615740740740741","1350.5"
"","","","","","jsShapes","9","105071","0.0-3.0-0.6","665ca2f40cef08da33075320","65c50b3547f20f00b2aeeb58","665ca925f76e8e04ef2989f7","","","[3,3]","right","[1,0]","1","9385.79999999702","0","1278.7000000029802"
"","","","","","jsShapes","10","109621","0.0-3.0-0.7","665ca2f40cef08da33075320","65c50b3547f20f00b2aeeb58","665ca925f76e8e04ef2989f7","","","[2,3]","left","[0,2]","1","3223.300000000745","0","1310.3999999985099"
"","","","","","jsShapes","11","117438","0.0-3.0-0.8","665ca2f40cef08da33075320","65c50b3547f20f00b2aeeb58","665ca925f76e8e04ef2989f7","","","[0,1]","left","[4,0]","1","5585.300000000745","0.8101851851851851","2222.60000000149"
"","","","","","jsShapes","12","121171","0.0-3.0-0.9","665ca2f40cef08da33075320","65c50b3547f20f00b2aeeb58","665ca925f76e8e04ef2989f7","","","[1,4]","left","[0,3]","1","2616.60000000149","0","1110.6000000014901"
"","","","","","jsShapes","13","126788","0.0-3.0-0.10","665ca2f40cef08da33075320","65c50b3547f20f00b2aeeb58","665ca925f76e8e04ef2989f7","","","[4,4]","right","[0,1]","0","3763.2999999970198","0","1839.2000000029802"
"","","","","","jsShapes","14","130854","0.0-3.0-0.11","665ca2f40cef08da33075320","65c50b3547f20f00b2aeeb58","665ca925f76e8e04ef2989f7","","","[0,1]","right","[1,2]","0","2410.900000002235","1","1638.8999999985099"
"","","","","","jsShapes","15","134821","0.0-3.0-0.12","665ca2f40cef08da33075320","65c50b3547f20f00b2aeeb58","665ca925f76e8e04ef2989f7","","","[3,3]","left","[0,1]","1","2640","0","1310.800000000745"
"","","","","","jsShapes","16","138521","0.0-3.0-0.13","665ca2f40cef08da33075320","65c50b3547f20f00b2aeeb58","665ca925f76e8e04ef2989f7","","","[0,1]","left","[0,3]","0","2433.39999999851","0.8402777777777778","1262.699999999255"
"","","","","","jsShapes","17","142188","0.0-3.0-0.14","665ca2f40cef08da33075320","65c50b3547f20f00b2aeeb58","665ca925f76e8e04ef2989f7","","","[0,1]","right","[1,3]","0","2304.10000000149","1","1350.5"
"","","","","","jsShapes","18","147404","0.0-3.0-0.15","665ca2f40cef08da33075320","65c50b3547f20f00b2aeeb58","665ca925f76e8e04ef2989f7","","","[2,2]","right","[0,1]","1","3034.800000000745","0","2174.60000000149"
"","","","","","survey-text","19","234791","0.0-4.0","665ca2f40cef08da33075320","65c50b3547f20f00b2aeeb58","665ca925f76e8e04ef2989f7","87383","","","","","{""worker_comments"":""Can't know anything for certain even when using logic, it's still unknown until revealed. Schrodinger's cat""}","","",""
"","","","","","instructions","20","238024","0.0-5.0","665ca2f40cef08da33075320","65c50b3547f20f00b2aeeb58","665ca925f76e8e04ef2989f7","3233","[{""page_index"":0,""viewing_time"":3233}]","","","","","","",""
"success","timeout","failed_images","failed_audio","failed_video","trial_type","trial_index","time_elapsed","internal_node_id","STUDY_ID","PROLIFIC_PID","SESSION_ID","rt","view_history","shapes","occluder","options","response","RT","confidence","confidence_RT"
"true","false","[]","[]","[]","preload","0","58","0.0-0.0","665ca2f40cef08da33075320","636d39168fe0bc0570ee8da0","665ca9460bf7190c2e8bab70","","","","","","","","",""
"true","","","","","fullscreen","1","10774","0.0-1.0","665ca2f40cef08da33075320","636d39168fe0bc0570ee8da0","665ca9460bf7190c2e8bab70","9695","","","","","","","",""
"","","","","","instructions","2","49961","0.0-2.0","665ca2f40cef08da33075320","636d39168fe0bc0570ee8da0","665ca9460bf7190c2e8bab70","39183","[{""page_index"":0,""viewing_time"":7578},{""page_index"":1,""viewing_time"":20657},{""page_index"":2,""viewing_time"":8036},{""page_index"":3,""viewing_time"":2010},{""page_index"":4,""viewing_time"":901}]","","","","","","",""
"","","","","","jsShapes","3","76306","0.0-3.0-0.0","665ca2f40cef08da33075320","636d39168fe0bc0570ee8da0","665ca9460bf7190c2e8bab70","","","[1,0]","right","[1,0]","1","17099.39999999851","0.9270833333333334","9198.699999999255"
"","","","","","jsShapes","4","94038","0.0-3.0-0.1","665ca2f40cef08da33075320","636d39168fe0bc0570ee8da0","665ca9460bf7190c2e8bab70","","","[4,4]","left","[0,3]","1","14606.89999999851","0.0078125","3111.900000002235"
"","","","","","jsShapes","5","111102","0.0-3.0-0.2","665ca2f40cef08da33075320","636d39168fe0bc0570ee8da0","665ca9460bf7190c2e8bab70","","","[0,1]","left","[0,2]","0","14167.39999999851","0.48697916666666663","2883"
"","","","","","jsShapes","6","120971","0.0-3.0-0.3","665ca2f40cef08da33075320","636d39168fe0bc0570ee8da0","665ca9460bf7190c2e8bab70","","","[0,1]","right","[1,3]","0","8068.60000000149","0.9817708333333334","1789.3999999985099"
"","","","","","jsShapes","7","141959","0.0-3.0-0.4","665ca2f40cef08da33075320","636d39168fe0bc0570ee8da0","665ca9460bf7190c2e8bab70","","","[0,1]","right","[4,1]","1","19350.599999997765","0.9895833333333334","1621.4000000022352"
"","","","","","jsShapes","8","152764","0.0-3.0-0.5","665ca2f40cef08da33075320","636d39168fe0bc0570ee8da0","665ca9460bf7190c2e8bab70","","","[2,2]","left","[4,0]","0","8661.300000000745","0","2140.5"
"","","","","","jsShapes","9","164885","0.0-3.0-0.6","665ca2f40cef08da33075320","636d39168fe0bc0570ee8da0","665ca9460bf7190c2e8bab70","","","[0,1]","left","[0,3]","0","10024.10000000149","0.5026041666666667","2091.5"
"","","","","","jsShapes","10","173485","0.0-3.0-0.7","665ca2f40cef08da33075320","636d39168fe0bc0570ee8da0","665ca9460bf7190c2e8bab70","","","[1,0]","right","[1,3]","1","6381.099999997765","0","2215.2000000029802"
"","","","","","jsShapes","11","181232","0.0-3.0-0.8","665ca2f40cef08da33075320","636d39168fe0bc0570ee8da0","665ca9460bf7190c2e8bab70","","","[0,1]","right","[1,2]","0","5068.89999999851","1","2668.400000002235"
"","","","","","jsShapes","12","194840","0.0-3.0-0.9","665ca2f40cef08da33075320","636d39168fe0bc0570ee8da0","665ca9460bf7190c2e8bab70","","","[4,3]","left","[0,2]","1","10445.400000002235","1","3147.099999997765"
"","","","","","jsShapes","13","208014","0.0-3.0-0.10","665ca2f40cef08da33075320","636d39168fe0bc0570ee8da0","665ca9460bf7190c2e8bab70","","","[3,3]","right","[0,1]","0","11777.400000002235","1","1390.5999999977648"
"","","","","","jsShapes","14","218500","0.0-3.0-0.11","665ca2f40cef08da33075320","636d39168fe0bc0570ee8da0","665ca9460bf7190c2e8bab70","","","[0,1]","left","[2,0]","1","8432.5","1","2048.89999999851"
"","","","","","jsShapes","15","243364","0.0-3.0-0.12","665ca2f40cef08da33075320","636d39168fe0bc0570ee8da0","665ca9460bf7190c2e8bab70","","","[4,2]","left","[0,4]","1","22817","1","2041.9000000022352"
"","","","","","jsShapes","16","249373","0.0-3.0-0.13","665ca2f40cef08da33075320","636d39168fe0bc0570ee8da0","665ca9460bf7190c2e8bab70","","","[0,1]","right","[1,0]","0","4824.5","1","1179.800000000745"
"","","","","","jsShapes","17","264168","0.0-3.0-0.14","665ca2f40cef08da33075320","636d39168fe0bc0570ee8da0","665ca9460bf7190c2e8bab70","","","[0,1]","left","[1,0]","1","12813.89999999851","0.9739583333333334","1972.4000000022352"
"","","","","","jsShapes","18","274019","0.0-3.0-0.15","665ca2f40cef08da33075320","636d39168fe0bc0570ee8da0","665ca9460bf7190c2e8bab70","","","[1,3]","right","[4,1]","0","7902.800000000745","1","1937.300000000745"
"","","","","","survey-text","19","297804","0.0-4.0","665ca2f40cef08da33075320","636d39168fe0bc0570ee8da0","665ca9460bf7190c2e8bab70","23728","","","","","{""worker_comments"":""n/a""}","","",""
"","","","","","instructions","20","303608","0.0-5.0","665ca2f40cef08da33075320","636d39168fe0bc0570ee8da0","665ca9460bf7190c2e8bab70","5802","[{""page_index"":0,""viewing_time"":5801}]","","","","","","",""
"success","timeout","failed_images","failed_audio","failed_video","trial_type","trial_index","time_elapsed","internal_node_id","STUDY_ID","PROLIFIC_PID","SESSION_ID","rt","view_history","shapes","occluder","options","response","RT","confidence","confidence_RT"
"true","false","[]","[]","[]","preload","0","122","0.0-0.0","665ca2f40cef08da33075320","5acd7cb2e9d7a30001c2cc45","665ca94b876948c40b237e62","","","","","","","","",""
"true","","","","","fullscreen","1","3542","0.0-1.0","665ca2f40cef08da33075320","5acd7cb2e9d7a30001c2cc45","665ca94b876948c40b237e62","2415","","","","","","","",""
"","","","","","instructions","2","30066","0.0-2.0","665ca2f40cef08da33075320","5acd7cb2e9d7a30001c2cc45","665ca94b876948c40b237e62","26523","[{""page_index"":0,""viewing_time"":3015},{""page_index"":1,""viewing_time"":14736},{""page_index"":2,""viewing_time"":5960},{""page_index"":3,""viewing_time"":1476},{""page_index"":4,""viewing_time"":1336}]","","","","","","",""
"","","","","","jsShapes","3","40424","0.0-3.0-0.0","665ca2f40cef08da33075320","5acd7cb2e9d7a30001c2cc45","665ca94b876948c40b237e62","","","[3,4]","left","[0,2]","0","5286","0.653968253968254","5056.4000000059605"
"","","","","","jsShapes","4","46274","0.0-3.0-0.1","665ca2f40cef08da33075320","5acd7cb2e9d7a30001c2cc45","665ca94b876948c40b237e62","","","[4,0]","right","[1,4]","0","3559.39999999851","0.6301587301587301","2276.60000000149"
"","","","","","jsShapes","5","50957","0.0-3.0-0.2","665ca2f40cef08da33075320","5acd7cb2e9d7a30001c2cc45","665ca94b876948c40b237e62","","","[0,1]","right","[1,3]","0","2837.7999999970198","0.6015873015873017","1831.2000000029802"
"","","","","","jsShapes","6","55041","0.0-3.0-0.3","665ca2f40cef08da33075320","5acd7cb2e9d7a30001c2cc45","665ca94b876948c40b237e62","","","[0,1]","left","[0,1]","0","2711.89999999851","0.638095238095238","1357.7000000029802"
"","","","","","jsShapes","7","65323","0.0-3.0-0.4","665ca2f40cef08da33075320","5acd7cb2e9d7a30001c2cc45","665ca94b876948c40b237e62","","","[3,3]","right","[2,1]","1","8605.19999999553","0.646031746031746","1663.3999999985099"
"","","","","","jsShapes","8","70174","0.0-3.0-0.5","665ca2f40cef08da33075320","5acd7cb2e9d7a30001c2cc45","665ca94b876948c40b237e62","","","[0,1]","right","[1,2]","0","3578.10000000149","0.47777777777777775","1258.5"
"","","","","","jsShapes","9","79707","0.0-3.0-0.6","665ca2f40cef08da33075320","5acd7cb2e9d7a30001c2cc45","665ca94b876948c40b237e62","","","[3,4]","left","[1,0]","1","8188.29999999702","0.4634920634920635","1331.5"
"","","","","","jsShapes","10","84723","0.0-3.0-0.7","665ca2f40cef08da33075320","5acd7cb2e9d7a30001c2cc45","665ca94b876948c40b237e62","","","[0,1]","left","[3,0]","1","3696.2000000029802","0.5333333333333333","1305.6000000014901"
"","","","","","jsShapes","11","89857","0.0-3.0-0.8","665ca2f40cef08da33075320","5acd7cb2e9d7a30001c2cc45","665ca94b876948c40b237e62","","","[0,1]","right","[0,1]","1","3957.5","0.5507936507936508","1162.4000000059605"
"","","","","","jsShapes","12","94974","0.0-3.0-0.9","665ca2f40cef08da33075320","5acd7cb2e9d7a30001c2cc45","665ca94b876948c40b237e62","","","[0,1]","left","[0,2]","0","3551.2000000029802","0.5809523809523809","1551.3999999985099"
"","","","","","jsShapes","13","99373","0.0-3.0-0.10","665ca2f40cef08da33075320","5acd7cb2e9d7a30001c2cc45","665ca94b876948c40b237e62","","","[3,3]","right","[1,4]","1","3235.89999999851","0.46984126984126984","1150.1000000014901"
"","","","","","jsShapes","14","104457","0.0-3.0-0.11","665ca2f40cef08da33075320","5acd7cb2e9d7a30001c2cc45","665ca94b876948c40b237e62","","","[4,3]","left","[0,4]","0","3371.7999999970198","0.5650793650793651","1698.4000000059605"
"","","","","","jsShapes","15","109790","0.0-3.0-0.12","665ca2f40cef08da33075320","5acd7cb2e9d7a30001c2cc45","665ca94b876948c40b237e62","","","[0,1]","right","[4,1]","1","3919.2000000029802","0.5650793650793651","1398.5999999940395"
"","","","","","jsShapes","16","114357","0.0-3.0-0.13","665ca2f40cef08da33075320","5acd7cb2e9d7a30001c2cc45","665ca94b876948c40b237e62","","","[3,0]","left","[3,0]","0","3470.8000000044703","0.5555555555555556","1083.8999999985099"
"","","","","","jsShapes","17","118940","0.0-3.0-0.14","665ca2f40cef08da33075320","5acd7cb2e9d7a30001c2cc45","665ca94b876948c40b237e62","","","[0,1]","left","[0,1]","0","3471.2999999970198","0.5936507936507937","1097.5"
"","","","","","jsShapes","18","124890","0.0-3.0-0.15","665ca2f40cef08da33075320","5acd7cb2e9d7a30001c2cc45","665ca94b876948c40b237e62","","","[4,4]","right","[1,0]","1","4897.10000000149","0.2777777777777778","1040.7999999970198"
"","","","","","survey-text","19","191887","0.0-4.0","665ca2f40cef08da33075320","5acd7cb2e9d7a30001c2cc45","665ca94b876948c40b237e62","66991","","","","","{""worker_comments"":""I tried to remember the \""if left is triangle it's a circle\"" or whatever that rule was, I tended to choose a different shape than the one revealed, I.e. not two triangles chosen, so I didnt choose the similar shape but one that was different to the one revealed. If that makes sense :) It was interesting! Kind of went on instinct to choose! Thanks for the study opportunity! ""}","","",""
"","","","","","instructions","20","193870","0.0-5.0","665ca2f40cef08da33075320","5acd7cb2e9d7a30001c2cc45","665ca94b876948c40b237e62","1982","[{""page_index"":0,""viewing_time"":1982}]","","","","","","",""
"success","timeout","failed_images","failed_audio","failed_video","trial_type","trial_index","time_elapsed","internal_node_id","STUDY_ID","PROLIFIC_PID","SESSION_ID","rt","view_history","shapes","occluder","options","response","RT","confidence","confidence_RT"
"true","false","[]","[]","[]","preload","0","1115","0.0-0.0","665ca2f40cef08da33075320","60feb158686a0257a884d9b3","665ca94a6e58916732080022","","","","","","","","",""
"true","","","","","fullscreen","1","6689","0.0-1.0","665ca2f40cef08da33075320","60feb158686a0257a884d9b3","665ca94a6e58916732080022","4571","","","","","","","",""
"","","","","","instructions","2","53471","0.0-2.0","665ca2f40cef08da33075320","60feb158686a0257a884d9b3","665ca94a6e58916732080022","46782","[{""page_index"":0,""viewing_time"":2295},{""page_index"":1,""viewing_time"":35632},{""page_index"":2,""viewing_time"":6376},{""page_index"":3,""viewing_time"":1599},{""page_index"":4,""viewing_time"":879}]","","","","","","",""
"","","","","","jsShapes","3","68890","0.0-3.0-0.0","665ca2f40cef08da33075320","60feb158686a0257a884d9b3","665ca94a6e58916732080022","","","[3,3]","left","[0,1]","1","13093.89999999106","0.19777777777777783","2305.2999999970198"
"","","","","","jsShapes","4","82789","0.0-3.0-0.1","665ca2f40cef08da33075320","60feb158686a0257a884d9b3","665ca94a6e58916732080022","","","[1,3]","right","[1,2]","1","11648.90000000596","1","2245"
"","","","","","jsShapes","5","86723","0.0-3.0-0.2","665ca2f40cef08da33075320","60feb158686a0257a884d9b3","665ca94a6e58916732080022","","","[0,1]","left","[0,4]","0","3086.7999999970198","1","842.5"
"","","","","","jsShapes","6","94056","0.0-3.0-0.3","665ca2f40cef08da33075320","60feb158686a0257a884d9b3","665ca94a6e58916732080022","","","[0,1]","right","[4,1]","1","6161","0.9622222222222222","1162.2000000029802"
"","","","","","jsShapes","7","103106","0.0-3.0-0.4","665ca2f40cef08da33075320","60feb158686a0257a884d9b3","665ca94a6e58916732080022","","","[2,0]","left","[2,0]","0","7768.79999999702","0.9933333333333333","1273.300000011921"
"","","","","","jsShapes","8","107039","0.0-3.0-0.5","665ca2f40cef08da33075320","60feb158686a0257a884d9b3","665ca94a6e58916732080022","","","[0,1]","left","[2,0]","1","3133.699999988079","0.9933333333333333","795.1000000089407"
"","","","","","jsShapes","9","111122","0.0-3.0-0.6","665ca2f40cef08da33075320","60feb158686a0257a884d9b3","665ca94a6e58916732080022","","","[0,1]","right","[2,1]","1","3172.2000000029802","0.98","907"
"","","","","","jsShapes","10","115739","0.0-3.0-0.7","665ca2f40cef08da33075320","60feb158686a0257a884d9b3","665ca94a6e58916732080022","","","[2,2]","right","[4,1]","0","3899.7000000029802","0.98","708"
"","","","","","jsShapes","11","118972","0.0-3.0-0.8","665ca2f40cef08da33075320","60feb158686a0257a884d9b3","665ca94a6e58916732080022","","","[0,1]","left","[3,0]","1","2551.9000000059605","0.98","676.2000000029802"
"","","","","","jsShapes","12","122889","0.0-3.0-0.9","665ca2f40cef08da33075320","60feb158686a0257a884d9b3","665ca94a6e58916732080022","","","[3,2]","left","[2,0]","0","3248.5","0.98","658.2000000029802"
"","","","","","jsShapes","13","126939","0.0-3.0-0.10","665ca2f40cef08da33075320","60feb158686a0257a884d9b3","665ca94a6e58916732080022","","","[1,3]","right","[3,1]","0","3382.0999999940395","0.98","662.9000000059605"
"","","","","","jsShapes","14","129539","0.0-3.0-0.11","665ca2f40cef08da33075320","60feb158686a0257a884d9b3","665ca94a6e58916732080022","","","[0,1]","right","[1,0]","0","1872.5","0.98","717.6000000089407"
"","","","","","jsShapes","15","134155","0.0-3.0-0.12","665ca2f40cef08da33075320","60feb158686a0257a884d9b3","665ca94a6e58916732080022","","","[1,0]","right","[4,1]","0","3789.5999999940395","0.98","822.7000000029802"
"","","","","","jsShapes","16","137355","0.0-3.0-0.13","665ca2f40cef08da33075320","60feb158686a0257a884d9b3","665ca94a6e58916732080022","","","[2,3]","left","[4,0]","0","2528.9000000059605","0.98","661"
"","","","","","jsShapes","17","140022","0.0-3.0-0.14","665ca2f40cef08da33075320","60feb158686a0257a884d9b3","665ca94a6e58916732080022","","","[0,1]","right","[1,4]","0","2000.7000000029802","0.98","662.2999999970198"
"","","","","","jsShapes","18","142572","0.0-3.0-0.15","665ca2f40cef08da33075320","60feb158686a0257a884d9b3","665ca94a6e58916732080022","","","[0,1]","left","[0,4]","0","1790.5","0.98","750.2999999970198"
"","","","","","survey-text","19","169856","0.0-4.0","665ca2f40cef08da33075320","60feb158686a0257a884d9b3","665ca94a6e58916732080022","27272","","","","","{""worker_comments"":""I didn't understand the immediate premise of the experiment - wording was a little confusing to me - but then I understood! (I hope!) ""}","","",""
"","","","","","instructions","20","172217","0.0-5.0","665ca2f40cef08da33075320","60feb158686a0257a884d9b3","665ca94a6e58916732080022","2361","[{""page_index"":0,""viewing_time"":2361}]","","","","","","",""
"success","timeout","failed_images","failed_audio","failed_video","trial_type","trial_index","time_elapsed","internal_node_id","STUDY_ID","PROLIFIC_PID","SESSION_ID","rt","view_history","shapes","occluder","options","response","RT","confidence","confidence_RT"
"true","false","[]","[]","[]","preload","0","345","0.0-0.0","665ca2f40cef08da33075320","578b98199bd3d70001e4f9bc","665ca947beb2274c6c6153fc","","","","","","","","",""
"true","","","","","fullscreen","1","3082","0.0-1.0","665ca2f40cef08da33075320","578b98199bd3d70001e4f9bc","665ca947beb2274c6c6153fc","1736","","","","","","","",""
"","","","","","instructions","2","28314","0.0-2.0","665ca2f40cef08da33075320","578b98199bd3d70001e4f9bc","665ca947beb2274c6c6153fc","25231","[{""page_index"":0,""viewing_time"":2260},{""page_index"":1,""viewing_time"":10828},{""page_index"":2,""viewing_time"":1446},{""page_index"":1,""viewing_time"":5119},{""page_index"":2,""viewing_time"":4160},{""page_index"":3,""viewing_time"":992},{""page_index"":4,""viewing_time"":427}]","","","","","","",""
"","","","","","jsShapes","3","51246","0.0-3.0-0.0","665ca2f40cef08da33075320","578b98199bd3d70001e4f9bc","665ca947beb2274c6c6153fc","","","[2,2]","right","[1,0]","0","20141","0.8092592592592592","2778.8000000715256"
"","","","","","jsShapes","4","57862","0.0-3.0-0.1","665ca2f40cef08da33075320","578b98199bd3d70001e4f9bc","665ca947beb2274c6c6153fc","","","[0,1]","left","[0,3]","0","5089.199999928474","0.9722222222222222","1523.9000000953674"
"","","","","","jsShapes","5","65079","0.0-3.0-0.2","665ca2f40cef08da33075320","578b98199bd3d70001e4f9bc","665ca947beb2274c6c6153fc","","","[0,1]","right","[1,3]","0","5957.199999928474","1","1242.2000000476837"
"","","","","","jsShapes","6","80762","0.0-3.0-0.3","665ca2f40cef08da33075320","578b98199bd3d70001e4f9bc","665ca947beb2274c6c6153fc","","","[2,0]","left","[0,1]","0","14404.599999904633","0.5074074074074074","1264"
"","","","","","jsShapes","7","85817","0.0-3.0-0.4","665ca2f40cef08da33075320","578b98199bd3d70001e4f9bc","665ca947beb2274c6c6153fc","","","[0,1]","right","[1,3]","0","3868.1999999284744","1","1180"
"","","","","","jsShapes","8","95117","0.0-3.0-0.5","665ca2f40cef08da33075320","578b98199bd3d70001e4f9bc","665ca947beb2274c6c6153fc","","","[2,0]","left","[0,3]","1","7977.100000023842","0.5407407407407407","1317.6999999284744"
"","","","","","jsShapes","9","105817","0.0-3.0-0.6","665ca2f40cef08da33075320","578b98199bd3d70001e4f9bc","665ca947beb2274c6c6153fc","","","[4,0]","right","[1,3]","1","9744.299999952316","0","950.8000000715256"
"","","","","","jsShapes","10","110867","0.0-3.0-0.7","665ca2f40cef08da33075320","578b98199bd3d70001e4f9bc","665ca947beb2274c6c6153fc","","","[0,1]","left","[0,3]","0","4267.100000023842","1","766.5"
"","","","","","jsShapes","11","116434","0.0-3.0-0.8","665ca2f40cef08da33075320","578b98199bd3d70001e4f9bc","665ca947beb2274c6c6153fc","","","[1,4]","left","[2,0]","0","3972.100000023842","0","1591.8999999761581"
"","","","","","jsShapes","12","128850","0.0-3.0-0.9","665ca2f40cef08da33075320","578b98199bd3d70001e4f9bc","665ca947beb2274c6c6153fc","","","[3,0]","right","[1,4]","1","11613.899999976158","0","786.7000000476837"
"","","","","","jsShapes","13","135267","0.0-3.0-0.10","665ca2f40cef08da33075320","578b98199bd3d70001e4f9bc","665ca947beb2274c6c6153fc","","","[0,1]","right","[4,1]","1","5586.299999952316","1","824"
"","","","","","jsShapes","14","144500","0.0-3.0-0.11","665ca2f40cef08da33075320","578b98199bd3d70001e4f9bc","665ca947beb2274c6c6153fc","","","[0,1]","left","[0,2]","0","8350.100000023842","1","877.6999999284744"
"","","","","","jsShapes","15","147867","0.0-3.0-0.12","665ca2f40cef08da33075320","578b98199bd3d70001e4f9bc","665ca947beb2274c6c6153fc","","","[0,1]","right","[0,1]","1","2572.4000000953674","1","777.7999999523163"
"","","","","","jsShapes","16","152366","0.0-3.0-0.13","665ca2f40cef08da33075320","578b98199bd3d70001e4f9bc","665ca947beb2274c6c6153fc","","","[0,1]","left","[0,1]","0","3824","1","666.8000000715256"
"","","","","","jsShapes","17","160683","0.0-3.0-0.14","665ca2f40cef08da33075320","578b98199bd3d70001e4f9bc","665ca947beb2274c6c6153fc","","","[1,0]","left","[0,2]","1","6918.899999976158","0","1395"
"","","","","","jsShapes","18","167733","0.0-3.0-0.15","665ca2f40cef08da33075320","578b98199bd3d70001e4f9bc","665ca947beb2274c6c6153fc","","","[4,4]","right","[0,1]","1","6159.399999976158","0","885"
"","","","","","survey-text","19","170318","0.0-4.0","665ca2f40cef08da33075320","578b98199bd3d70001e4f9bc","665ca947beb2274c6c6153fc","2583","","","","","{""worker_comments"":""""}","","",""
"","","","","","instructions","20","172203","0.0-5.0","665ca2f40cef08da33075320","578b98199bd3d70001e4f9bc","665ca947beb2274c6c6153fc","1885","[{""page_index"":0,""viewing_time"":1885}]","","","","","","",""
"success","timeout","failed_images","failed_audio","failed_video","trial_type","trial_index","time_elapsed","internal_node_id","STUDY_ID","PROLIFIC_PID","SESSION_ID","rt","view_history","shapes","occluder","options","response","RT","confidence","confidence_RT"
"true","false","[]","[]","[]","preload","0","286","0.0-0.0","665ca2f40cef08da33075320","5d3112122401af0018ba2919","665ca94cc8e61c18498ce313","","","","","","","","",""
"true","","","","","fullscreen","1","4684","0.0-1.0","665ca2f40cef08da33075320","5d3112122401af0018ba2919","665ca94cc8e61c18498ce313","3395","","","","","","","",""
"","","","","","instructions","2","31310","0.0-2.0","665ca2f40cef08da33075320","5d3112122401af0018ba2919","665ca94cc8e61c18498ce313","26625","[{""page_index"":0,""viewing_time"":5255},{""page_index"":1,""viewing_time"":10335},{""page_index"":2,""viewing_time"":8381},{""page_index"":3,""viewing_time"":1701},{""page_index"":4,""viewing_time"":953}]","","","","","","",""
"","","","","","jsShapes","3","46434","0.0-3.0-0.0","665ca2f40cef08da33075320","5d3112122401af0018ba2919","665ca94cc8e61c18498ce313","","","[4,4]","left","[3,0]","0","12462.09999999404","0.07999999999999996","2640.0999999940395"
"","","","","","jsShapes","4","54535","0.0-3.0-0.1","665ca2f40cef08da33075320","5d3112122401af0018ba2919","665ca94cc8e61c18498ce313","","","[0,1]","left","[2,0]","0","6845","0.06222222222222218","1250.5"
"","","","","","jsShapes","5","64019","0.0-3.0-0.2","665ca2f40cef08da33075320","5d3112122401af0018ba2919","665ca94cc8e61c18498ce313","","","[4,3]","right","[0,1]","1","7853.0999999940395","0.09999999999999998","1626.7000000178814"
"","","","","","jsShapes","6","70352","0.0-3.0-0.3","665ca2f40cef08da33075320","5d3112122401af0018ba2919","665ca94cc8e61c18498ce313","","","[0,1]","right","[1,2]","0","4930","1","1399.7000000178814"
"","","","","","jsShapes","7","75018","0.0-3.0-0.4","665ca2f40cef08da33075320","5d3112122401af0018ba2919","665ca94cc8e61c18498ce313","","","[3,2]","left","[4,0]","0","3481.699999988079","0.0888888888888889","1166.800000011921"
"","","","","","jsShapes","8","86218","0.0-3.0-0.5","665ca2f40cef08da33075320","5d3112122401af0018ba2919","665ca94cc8e61c18498ce313","","","[2,4]","right","[1,4]","0","10130.199999988079","0.1577777777777778","1064.5"
"","","","","","jsShapes","9","90185","0.0-3.0-0.6","665ca2f40cef08da33075320","5d3112122401af0018ba2919","665ca94cc8e61c18498ce313","","","[0,1]","right","[1,0]","0","2596.5999999940395","1","1364.5"
"","","","","","jsShapes","10","95385","0.0-3.0-0.7","665ca2f40cef08da33075320","5d3112122401af0018ba2919","665ca94cc8e61c18498ce313","","","[0,1]","left","[0,4]","1","3513.699999988079","0.00666666666666671","1681.699999988079"
"","","","","","jsShapes","11","100718","0.0-3.0-0.8","665ca2f40cef08da33075320","5d3112122401af0018ba2919","665ca94cc8e61c18498ce313","","","[4,4]","right","[1,2]","0","3666.0999999940395","0.06000000000000005","1660.300000011921"
"","","","","","jsShapes","12","105869","0.0-3.0-0.9","665ca2f40cef08da33075320","5d3112122401af0018ba2919","665ca94cc8e61c18498ce313","","","[1,4]","left","[1,0]","0","4153","0.11777777777777776","992"
"","","","","","jsShapes","13","121701","0.0-3.0-0.10","665ca2f40cef08da33075320","5d3112122401af0018ba2919","665ca94cc8e61c18498ce313","","","[0,1]","left","[2,0]","1","14303","0.5977777777777777","1524.9000000059605"
"","","","","","jsShapes","14","125467","0.0-3.0-0.11","665ca2f40cef08da33075320","5d3112122401af0018ba2919","665ca94cc8e61c18498ce313","","","[0,1]","right","[1,3]","0","2494.4000000059605","1","1267.5"
"","","","","","jsShapes","15","131865","0.0-3.0-0.12","665ca2f40cef08da33075320","5d3112122401af0018ba2919","665ca94cc8e61c18498ce313","","","[0,1]","left","[3,0]","1","3526.5999999940395","0.8155555555555556","2867.7000000178814"
"","","","","","jsShapes","16","137998","0.0-3.0-0.13","665ca2f40cef08da33075320","5d3112122401af0018ba2919","665ca94cc8e61c18498ce313","","","[0,1]","right","[1,2]","0","4665.699999988079","0.9977777777777778","1462.800000011921"
"","","","","","jsShapes","17","144847","0.0-3.0-0.14","665ca2f40cef08da33075320","5d3112122401af0018ba2919","665ca94cc8e61c18498ce313","","","[1,0]","left","[0,4]","1","5911.0999999940395","0.36","934.9000000059605"
"","","","","","jsShapes","18","160280","0.0-3.0-0.15","665ca2f40cef08da33075320","5d3112122401af0018ba2919","665ca94cc8e61c18498ce313","","","[4,2]","right","[4,1]","1","13738.5","0.4622222222222222","1680.5"
"","","","","","survey-text","19","163412","0.0-4.0","665ca2f40cef08da33075320","5d3112122401af0018ba2919","665ca94cc8e61c18498ce313","3126","","","","","{""worker_comments"":""""}","","",""
"","","","","","instructions","20","166195","0.0-5.0","665ca2f40cef08da33075320","5d3112122401af0018ba2919","665ca94cc8e61c18498ce313","2783","[{""page_index"":0,""viewing_time"":2783}]","","","","","","",""
"success","timeout","failed_images","failed_audio","failed_video","trial_type","trial_index","time_elapsed","internal_node_id","STUDY_ID","PROLIFIC_PID","SESSION_ID","rt","view_history","shapes","occluder","options","response","RT","confidence","confidence_RT"
"true","false","[]","[]","[]","preload","0","110","0.0-0.0","665ca2f40cef08da33075320","62c5ca2ab3fa26ff1e37d054","665ca931af4554f634e03107","","","","","","","","",""
"true","","","","","fullscreen","1","4563","0.0-1.0","665ca2f40cef08da33075320","62c5ca2ab3fa26ff1e37d054","665ca931af4554f634e03107","3442","","","","","","","",""
"","","","","","instructions","2","79303","0.0-2.0","665ca2f40cef08da33075320","62c5ca2ab3fa26ff1e37d054","665ca931af4554f634e03107","74739","[{""page_index"":0,""viewing_time"":7541},{""page_index"":1,""viewing_time"":52906},{""page_index"":2,""viewing_time"":10770},{""page_index"":3,""viewing_time"":2305},{""page_index"":4,""viewing_time"":1216}]","","","","","","",""
"","","","","","jsShapes","3","93195","0.0-3.0-0.0","665ca2f40cef08da33075320","62c5ca2ab3fa26ff1e37d054","665ca931af4554f634e03107","","","[0,1]","left","[1,0]","1","5864.700000001118","0","7993.5"
"","","","","","jsShapes","4","104352","0.0-3.0-0.1","665ca2f40cef08da33075320","62c5ca2ab3fa26ff1e37d054","665ca931af4554f634e03107","","","[2,0]","left","[0,2]","1","6776.39999999851","0.953125","4370.800000000745"
"","","","","","jsShapes","5","109716","0.0-3.0-0.2","665ca2f40cef08da33075320","62c5ca2ab3fa26ff1e37d054","665ca931af4554f634e03107","","","[0,1]","right","[3,1]","1","2690.4000000003725","0.20572916666666663","2661.300000000745"
"","","","","","jsShapes","6","117525","0.0-3.0-0.3","665ca2f40cef08da33075320","62c5ca2ab3fa26ff1e37d054","665ca931af4554f634e03107","","","[4,4]","right","[2,1]","0","5620.9000000003725","0.02864583333333337","2182.7999999988824"
"","","","","","jsShapes","7","122721","0.0-3.0-0.4","665ca2f40cef08da33075320","62c5ca2ab3fa26ff1e37d054","665ca931af4554f634e03107","","","[0,1]","right","[3,1]","1","2736","0.9557291666666666","2448.699999999255"
"","","","","","jsShapes","8","127518","0.0-3.0-0.5","665ca2f40cef08da33075320","62c5ca2ab3fa26ff1e37d054","665ca931af4554f634e03107","","","[0,1]","left","[4,0]","1","2847.7000000011176","1","1940"
"","","","","","jsShapes","9","135744","0.0-3.0-0.6","665ca2f40cef08da33075320","62c5ca2ab3fa26ff1e37d054","665ca931af4554f634e03107","","","[2,3]","left","[4,0]","0","6000.699999999255","0.0026041666666666297","2219.800000000745"
"","","","","","jsShapes","10","148451","0.0-3.0-0.7","665ca2f40cef08da33075320","62c5ca2ab3fa26ff1e37d054","665ca931af4554f634e03107","","","[2,2]","right","[2,1]","1","10915.5","0.0078125","1776.5999999996275"
"","","","","","jsShapes","11","157694","0.0-3.0-0.8","665ca2f40cef08da33075320","62c5ca2ab3fa26ff1e37d054","665ca931af4554f634e03107","","","[1,3]","right","[1,4]","1","7250.300000000745","0.01041666666666663","1974.0999999996275"
"","","","","","jsShapes","12","167019","0.0-3.0-0.9","665ca2f40cef08da33075320","62c5ca2ab3fa26ff1e37d054","665ca931af4554f634e03107","","","[0,1]","left","[0,3]","0","7094.39999999851","1","2224.7000000011176"
"","","","","","jsShapes","13","172432","0.0-3.0-0.10","665ca2f40cef08da33075320","62c5ca2ab3fa26ff1e37d054","665ca931af4554f634e03107","","","[0,1]","right","[0,1]","1","3615.39999999851","1","1788.6000000014901"
"","","","","","jsShapes","14","183456","0.0-3.0-0.11","665ca2f40cef08da33075320","62c5ca2ab3fa26ff1e37d054","665ca931af4554f634e03107","","","[3,3]","left","[4,0]","0","8629.699999999255","0.9453125","2389.10000000149"
"","","","","","jsShapes","15","190101","0.0-3.0-0.12","665ca2f40cef08da33075320","62c5ca2ab3fa26ff1e37d054","665ca931af4554f634e03107","","","[1,2]","right","[1,2]","1","4795.5999999996275","0.03645833333333337","1838.800000000745"
"","","","","","jsShapes","16","196962","0.0-3.0-0.13","665ca2f40cef08da33075320","62c5ca2ab3fa26ff1e37d054","665ca931af4554f634e03107","","","[1,4]","left","[3,0]","0","4934.10000000149","0.05208333333333337","1922.5999999996275"
"","","","","","jsShapes","17","202608","0.0-3.0-0.14","665ca2f40cef08da33075320","62c5ca2ab3fa26ff1e37d054","665ca931af4554f634e03107","","","[0,1]","right","[3,1]","1","2724.199999999255","0.953125","2910.7000000011176"
"","","","","","jsShapes","18","208336","0.0-3.0-0.15","665ca2f40cef08da33075320","62c5ca2ab3fa26ff1e37d054","665ca931af4554f634e03107","","","[0,1]","left","[3,0]","1","3571.4000000003725","1","2139.699999999255"
"","","","","","survey-text","19","266175","0.0-4.0","665ca2f40cef08da33075320","62c5ca2ab3fa26ff1e37d054","665ca931af4554f634e03107","57810","","","","","{""worker_comments"":""I think my choices were based in-between following the rules and also make guess works""}","","",""
"","","","","","instructions","20","270723","0.0-5.0","665ca2f40cef08da33075320","62c5ca2ab3fa26ff1e37d054","665ca931af4554f634e03107","4547","[{""page_index"":0,""viewing_time"":4547}]","","","","","","",""
"success","timeout","failed_images","failed_audio","failed_video","trial_type","trial_index","time_elapsed","internal_node_id","STUDY_ID","PROLIFIC_PID","SESSION_ID","rt","view_history","shapes","occluder","options","response","RT","confidence","confidence_RT"
"true","false","[]","[]","[]","preload","0","58","0.0-0.0","665ca2f40cef08da33075320","5f5a4e1f3778490d3e6d1652","665ca93f2ee4b49c2d27be42","","","","","","","","",""
"true","","","","","fullscreen","1","12489","0.0-1.0","665ca2f40cef08da33075320","5f5a4e1f3778490d3e6d1652","665ca93f2ee4b49c2d27be42","11424","","","","","","","",""
"","","","","","instructions","2","127059","0.0-2.0","665ca2f40cef08da33075320","5f5a4e1f3778490d3e6d1652","665ca93f2ee4b49c2d27be42","114570","[{""page_index"":0,""viewing_time"":11647},{""page_index"":1,""viewing_time"":59422},{""page_index"":2,""viewing_time"":28712},{""page_index"":3,""viewing_time"":7083},{""page_index"":4,""viewing_time"":7706}]","","","","","","",""
"","","","","","jsShapes","3","152299","0.0-3.0-0.0","665ca2f40cef08da33075320","5f5a4e1f3778490d3e6d1652","665ca93f2ee4b49c2d27be42","","","[4,3]","right","[1,3]","1","16335.299999952316","1","8881.599999904633"
"","","","","","jsShapes","4","165377","0.0-3.0-0.1","665ca2f40cef08da33075320","5f5a4e1f3778490d3e6d1652","665ca93f2ee4b49c2d27be42","","","[0,1]","right","[1,0]","0","9446","1","3622.9000000953674"
"","","","","","jsShapes","5","214506","0.0-3.0-0.2","665ca2f40cef08da33075320","5f5a4e1f3778490d3e6d1652","665ca93f2ee4b49c2d27be42","","","[4,2]","left","[0,3]","1","36091.200000047684","0.5388888888888889","13028.799999952316"
"","","","","","jsShapes","6","227421","0.0-3.0-0.3","665ca2f40cef08da33075320","5f5a4e1f3778490d3e6d1652","665ca93f2ee4b49c2d27be42","","","[0,1]","left","[4,0]","1","8100.5","1","4797.400000095367"
"","","","","","jsShapes","7","239501","0.0-3.0-0.4","665ca2f40cef08da33075320","5f5a4e1f3778490d3e6d1652","665ca93f2ee4b49c2d27be42","","","[0,1]","left","[0,4]","0","7386.099999904633","1","4676"
"","","","","","jsShapes","8","246584","0.0-3.0-0.5","665ca2f40cef08da33075320","5f5a4e1f3778490d3e6d1652","665ca93f2ee4b49c2d27be42","","","[0,1]","right","[3,1]","1","3589.0999999046326","1","3487.9000000953674"
"","","","","","jsShapes","9","272480","0.0-3.0-0.6","665ca2f40cef08da33075320","5f5a4e1f3778490d3e6d1652","665ca93f2ee4b49c2d27be42","","","[2,3]","left","[4,0]","1","21553.60000014305","0.8555555555555556","4328.200000047684"
"","","","","","jsShapes","10","321791","0.0-3.0-0.7","665ca2f40cef08da33075320","5f5a4e1f3778490d3e6d1652","665ca93f2ee4b49c2d27be42","","","[4,0]","right","[2,1]","0","46203.299999952316","1","3089.2999999523163"
"","","","","","jsShapes","11","350337","0.0-3.0-0.8","665ca2f40cef08da33075320","5f5a4e1f3778490d3e6d1652","665ca93f2ee4b49c2d27be42","","","[1,4]","left","[0,4]","1","24940.39999985695","1","3594.2999999523163"
"","","","","","jsShapes","12","359819","0.0-3.0-0.9","665ca2f40cef08da33075320","5f5a4e1f3778490d3e6d1652","665ca93f2ee4b49c2d27be42","","","[0,1]","right","[1,2]","0","6513.399999856949","1","2960.800000190735"
"","","","","","jsShapes","13","397231","0.0-3.0-0.10","665ca2f40cef08da33075320","5f5a4e1f3778490d3e6d1652","665ca93f2ee4b49c2d27be42","","","[1,0]","right","[0,1]","0","34009.60000014305","0.6833333333333333","3385.7999999523163"
"","","","","","jsShapes","14","404829","0.0-3.0-0.11","665ca2f40cef08da33075320","5f5a4e1f3778490d3e6d1652","665ca93f2ee4b49c2d27be42","","","[0,1]","left","[0,4]","0","4954.400000095367","1","2625.7999999523163"
"","","","","","jsShapes","15","434209","0.0-3.0-0.12","665ca2f40cef08da33075320","5f5a4e1f3778490d3e6d1652","665ca93f2ee4b49c2d27be42","","","[3,4]","left","[0,2]","1","27301.89999985695","0.8","2072.7000000476837"
"","","","","","jsShapes","16","452840","0.0-3.0-0.13","665ca2f40cef08da33075320","5f5a4e1f3778490d3e6d1652","665ca93f2ee4b49c2d27be42","","","[3,3]","right","[1,4]","1","13985.200000047684","0.8444444444444444","4636.399999856949"
"","","","","","jsShapes","17","458506","0.0-3.0-0.14","665ca2f40cef08da33075320","5f5a4e1f3778490d3e6d1652","665ca93f2ee4b49c2d27be42","","","[0,1]","right","[1,3]","0","3430.7000000476837","1","2231.5"
"","","","","","jsShapes","18","464505","0.0-3.0-0.15","665ca2f40cef08da33075320","5f5a4e1f3778490d3e6d1652","665ca93f2ee4b49c2d27be42","","","[0,1]","left","[0,2]","0","2876.899999856949","1","3099.800000190735"
"","","","","","survey-text","19","536212","0.0-4.0","665ca2f40cef08da33075320","5f5a4e1f3778490d3e6d1652","665ca93f2ee4b49c2d27be42","71698","","","","","{""worker_comments"":""I can't think of anything you should take into account but I enjoyed the experiment and looking forward to seeing what the second part has in store!""}","","",""
"","","","","","instructions","20","542005","0.0-5.0","665ca2f40cef08da33075320","5f5a4e1f3778490d3e6d1652","665ca93f2ee4b49c2d27be42","5792","[{""page_index"":0,""viewing_time"":5792}]","","","","","","",""
"success","timeout","failed_images","failed_audio","failed_video","trial_type","trial_index","time_elapsed","internal_node_id","STUDY_ID","PROLIFIC_PID","SESSION_ID","rt","view_history","shapes","occluder","options","response","RT","confidence","confidence_RT"
"true","false","[]","[]","[]","preload","0","1576","0.0-0.0","665ca2f40cef08da33075320","60c3c8f790736ad8d329816b","665ca3540e651fa34412e918","","","","","","","","",""
"true","","","","","fullscreen","1","9438","0.0-1.0","665ca2f40cef08da33075320","60c3c8f790736ad8d329816b","665ca3540e651fa34412e918","6846","","","","","","","",""
"","","","","","instructions","2","68919","0.0-2.0","665ca2f40cef08da33075320","60c3c8f790736ad8d329816b","665ca3540e651fa34412e918","59480","[{""page_index"":0,""viewing_time"":4526},{""page_index"":1,""viewing_time"":27580},{""page_index"":2,""viewing_time"":16195},{""page_index"":3,""viewing_time"":9378},{""page_index"":4,""viewing_time"":1801}]","","","","","","",""
"","","","","","jsShapes","3","81623","0.0-3.0-0.0","665ca2f40cef08da33075320","60c3c8f790736ad8d329816b","665ca3540e651fa34412e918","","","[0,1]","right","[2,1]","1","8016","1","4588"
"","","","","","jsShapes","4","88979","0.0-3.0-0.1","665ca2f40cef08da33075320","60c3c8f790736ad8d329816b","665ca3540e651fa34412e918","","","[3,0]","right","[1,4]","1","5786","0.9791666666666666","1522"
"","","","","","jsShapes","5","93917","0.0-3.0-0.2","665ca2f40cef08da33075320","60c3c8f790736ad8d329816b","665ca3540e651fa34412e918","","","[0,1]","left","[4,0]","1","3591","0.9791666666666666","1335"
"","","","","","jsShapes","6","106901","0.0-3.0-0.3","665ca2f40cef08da33075320","60c3c8f790736ad8d329816b","665ca3540e651fa34412e918","","","[2,4]","left","[4,0]","0","8296","0.04166666666666663","4635"
"","","","","","jsShapes","7","121512","0.0-3.0-0.4","665ca2f40cef08da33075320","60c3c8f790736ad8d329816b","665ca3540e651fa34412e918","","","[1,0]","left","[0,3]","1","12887","0.02604166666666663","1686"
"","","","","","jsShapes","8","127011","0.0-3.0-0.5","665ca2f40cef08da33075320","60c3c8f790736ad8d329816b","665ca3540e651fa34412e918","","","[0,1]","left","[0,1]","0","3981","0.9739583333333334","1487"
"","","","","","jsShapes","9","130478","0.0-3.0-0.6","665ca2f40cef08da33075320","60c3c8f790736ad8d329816b","665ca3540e651fa34412e918","","","[1,3]","right","[0,1]","0","2428","0.9583333333333334","1020"
"","","","","","jsShapes","10","135007","0.0-3.0-0.7","665ca2f40cef08da33075320","60c3c8f790736ad8d329816b","665ca3540e651fa34412e918","","","[0,1]","right","[1,2]","0","3080","0.9921875","1421"
"","","","","","jsShapes","11","139073","0.0-3.0-0.8","665ca2f40cef08da33075320","60c3c8f790736ad8d329816b","665ca3540e651fa34412e918","","","[4,3]","right","[1,2]","1","3091","0.9921875","956"
"","","","","","jsShapes","12","142600","0.0-3.0-0.9","665ca2f40cef08da33075320","60c3c8f790736ad8d329816b","665ca3540e651fa34412e918","","","[0,1]","right","[3,1]","1","2024","0.9635416666666666","1464"
"","","","","","jsShapes","13","147872","0.0-3.0-0.10","665ca2f40cef08da33075320","60c3c8f790736ad8d329816b","665ca3540e651fa34412e918","","","[0,1]","left","[1,0]","1","3321","0.9817708333333334","1914"
"","","","","","jsShapes","14","151859","0.0-3.0-0.11","665ca2f40cef08da33075320","60c3c8f790736ad8d329816b","665ca3540e651fa34412e918","","","[2,0]","left","[0,1]","1","2243","0.9479166666666666","1720"
"","","","","","jsShapes","15","160053","0.0-3.0-0.12","665ca2f40cef08da33075320","60c3c8f790736ad8d329816b","665ca3540e651fa34412e918","","","[2,0]","left","[2,0]","0","6310","0.5494791666666667","1864"
"","","","","","jsShapes","16","163706","0.0-3.0-0.13","665ca2f40cef08da33075320","60c3c8f790736ad8d329816b","665ca3540e651fa34412e918","","","[0,1]","right","[0,1]","1","2038","0.9635416666666666","1551"
"","","","","","jsShapes","17","170438","0.0-3.0-0.14","665ca2f40cef08da33075320","60c3c8f790736ad8d329816b","665ca3540e651fa34412e918","","","[3,3]","right","[4,1]","0","3405","0.21614583333333337","3284"
"","","","","","jsShapes","18","174891","0.0-3.0-0.15","665ca2f40cef08da33075320","60c3c8f790736ad8d329816b","665ca3540e651fa34412e918","","","[0,1]","left","[0,1]","0","2599","0.9895833333333334","1835"
"","","","","","survey-text","19","181939","0.0-4.0","665ca2f40cef08da33075320","60c3c8f790736ad8d329816b","665ca3540e651fa34412e918","6833","","","","","{""worker_comments"":""""}","","",""
"","","","","","instructions","20","186118","0.0-5.0","665ca2f40cef08da33075320","60c3c8f790736ad8d329816b","665ca3540e651fa34412e918","4176","[{""page_index"":0,""viewing_time"":4176}]","","","","","","",""
"success","timeout","failed_images","failed_audio","failed_video","trial_type","trial_index","time_elapsed","internal_node_id","STUDY_ID","PROLIFIC_PID","SESSION_ID","rt","view_history","shapes","occluder","options","response","RT","confidence","confidence_RT"
"true","false","[]","[]","[]","preload","0","30","0.0-0.0","665ca2f40cef08da33075320","5eea9efc609f0d1ad38199bd","665daa59f4e73b21a0d7f9d7","","","","","","","","",""
"true","","","","","fullscreen","1","2892","0.0-1.0","665ca2f40cef08da33075320","5eea9efc609f0d1ad38199bd","665daa59f4e73b21a0d7f9d7","1857","","","","","","","",""
"","","","","","instructions","2","42326","0.0-2.0","665ca2f40cef08da33075320","5eea9efc609f0d1ad38199bd","665daa59f4e73b21a0d7f9d7","39434","[{""page_index"":0,""viewing_time"":3975},{""page_index"":1,""viewing_time"":23015},{""page_index"":2,""viewing_time"":9248},{""page_index"":3,""viewing_time"":2161},{""page_index"":4,""viewing_time"":1034}]","","","","","","",""
"","","","","","jsShapes","3","53320","0.0-3.0-0.0","665ca2f40cef08da33075320","5eea9efc609f0d1ad38199bd","665daa59f4e73b21a0d7f9d7","","","[0,1]","right","[1,0]","0","8285.900000000373","1","2685.800000000745"
"","","","","","jsShapes","4","63870","0.0-3.0-0.1","665ca2f40cef08da33075320","5eea9efc609f0d1ad38199bd","665daa59f4e73b21a0d7f9d7","","","[0,1]","left","[3,0]","1","8965.300000000745","0.7174603174603175","1576.5"
"","","","","","jsShapes","5","81454","0.0-3.0-0.2","665ca2f40cef08da33075320","5eea9efc609f0d1ad38199bd","665daa59f4e73b21a0d7f9d7","","","[3,3]","left","[0,4]","1","16124.5","0.6888888888888889","1444.800000000745"
"","","","","","jsShapes","6","90420","0.0-3.0-0.3","665ca2f40cef08da33075320","5eea9efc609f0d1ad38199bd","665daa59f4e73b21a0d7f9d7","","","[4,2]","right","[1,3]","1","7694","0.6333333333333333","1249.2999999988824"
"","","","","","jsShapes","7","96887","0.0-3.0-0.4","665ca2f40cef08da33075320","5eea9efc609f0d1ad38199bd","665daa59f4e73b21a0d7f9d7","","","[0,1]","left","[0,1]","0","5014.799999998882","1","1441.800000000745"
"","","","","","jsShapes","8","101937","0.0-3.0-0.5","665ca2f40cef08da33075320","5eea9efc609f0d1ad38199bd","665daa59f4e73b21a0d7f9d7","","","[0,1]","right","[2,1]","1","3512.5","1","1529.0999999996275"
"","","","","","jsShapes","9","109421","0.0-3.0-0.6","665ca2f40cef08da33075320","5eea9efc609f0d1ad38199bd","665daa59f4e73b21a0d7f9d7","","","[3,2]","right","[2,1]","0","6046","0.7936507936507937","1423.5"
"","","","","","jsShapes","10","115037","0.0-3.0-0.7","665ca2f40cef08da33075320","5eea9efc609f0d1ad38199bd","665daa59f4e73b21a0d7f9d7","","","[4,4]","left","[3,0]","0","4141.5999999996275","0.7253968253968254","1456.6000000014901"
"","","","","","jsShapes","11","120554","0.0-3.0-0.8","665ca2f40cef08da33075320","5eea9efc609f0d1ad38199bd","665daa59f4e73b21a0d7f9d7","","","[0,1]","right","[4,1]","1","4141.5","1","1365.4000000003725"
"","","","","","jsShapes","12","125887","0.0-3.0-0.9","665ca2f40cef08da33075320","5eea9efc609f0d1ad38199bd","665daa59f4e73b21a0d7f9d7","","","[0,1]","left","[0,3]","0","3874.4000000003725","1","1449.2999999988824"
"","","","","","jsShapes","13","131770","0.0-3.0-0.10","665ca2f40cef08da33075320","5eea9efc609f0d1ad38199bd","665daa59f4e73b21a0d7f9d7","","","[4,4]","left","[4,0]","0","4346.300000000745","0.734920634920635","1515.3999999985099"
"","","","","","jsShapes","14","136370","0.0-3.0-0.11","665ca2f40cef08da33075320","5eea9efc609f0d1ad38199bd","665daa59f4e73b21a0d7f9d7","","","[4,3]","right","[1,3]","1","3446.5","0.7634920634920634","1133"
"","","","","","jsShapes","15","142404","0.0-3.0-0.12","665ca2f40cef08da33075320","5eea9efc609f0d1ad38199bd","665daa59f4e73b21a0d7f9d7","","","[2,2]","right","[2,1]","1","4865.5999999996275","0.29841269841269846","1159.199999999255"
"","","","","","jsShapes","16","148820","0.0-3.0-0.13","665ca2f40cef08da33075320","5eea9efc609f0d1ad38199bd","665daa59f4e73b21a0d7f9d7","","","[3,0]","left","[0,3]","1","5230.5","0.519047619047619","1183.7000000011176"
"","","","","","jsShapes","17","155104","0.0-3.0-0.14","665ca2f40cef08da33075320","5eea9efc609f0d1ad38199bd","665daa59f4e73b21a0d7f9d7","","","[0,1]","left","[2,0]","1","3860.0999999996275","0.9666666666666667","2415.199999999255"
"","","","","","jsShapes","18","159736","0.0-3.0-0.15","665ca2f40cef08da33075320","5eea9efc609f0d1ad38199bd","665daa59f4e73b21a0d7f9d7","","","[0,1]","right","[1,4]","0","3358.7000000011176","1","1252.2999999988824"
"","","","","","survey-text","19","163269","0.0-4.0","665ca2f40cef08da33075320","5eea9efc609f0d1ad38199bd","665daa59f4e73b21a0d7f9d7","3526","","","","","{""worker_comments"":""""}","","",""
"","","","","","instructions","20","167349","0.0-5.0","665ca2f40cef08da33075320","5eea9efc609f0d1ad38199bd","665daa59f4e73b21a0d7f9d7","4078","[{""page_index"":0,""viewing_time"":4078}]","","","","","","",""
"success","timeout","failed_images","failed_audio","failed_video","trial_type","trial_index","time_elapsed","internal_node_id","STUDY_ID","PROLIFIC_PID","SESSION_ID","rt","view_history","shapes","occluder","options","response","RT","confidence","confidence_RT"
"true","false","[]","[]","[]","preload","0","58","0.0-0.0","665ca2f40cef08da33075320","6047ff03cb24e712c17514b7","665ca37a054b2bee4332213c","","","","","","","","",""
"true","","","","","fullscreen","1","2695","0.0-1.0","665ca2f40cef08da33075320","6047ff03cb24e712c17514b7","665ca37a054b2bee4332213c","1626","","","","","","","",""
"","","","","","instructions","2","56032","0.0-2.0","665ca2f40cef08da33075320","6047ff03cb24e712c17514b7","665ca37a054b2bee4332213c","53337","[{""page_index"":0,""viewing_time"":1877},{""page_index"":1,""viewing_time"":30158},{""page_index"":2,""viewing_time"":9712},{""page_index"":1,""viewing_time"":7057},{""page_index"":2,""viewing_time"":865},{""page_index"":3,""viewing_time"":1545},{""page_index"":4,""viewing_time"":2122}]","","","","","","",""
"","","","","","jsShapes","3","68539","0.0-3.0-0.0","665ca2f40cef08da33075320","6047ff03cb24e712c17514b7","665ca37a054b2bee4332213c","","","[1,3]","right","[1,3]","0","8050","0","4444"
"","","","","","jsShapes","4","73028","0.0-3.0-0.1","665ca2f40cef08da33075320","6047ff03cb24e712c17514b7","665ca37a054b2bee4332213c","","","[0,1]","right","[1,4]","0","3026","1","1450"
"","","","","","jsShapes","5","80770","0.0-3.0-0.2","665ca2f40cef08da33075320","6047ff03cb24e712c17514b7","665ca37a054b2bee4332213c","","","[2,0]","left","[0,4]","0","6624","0.022222222222222254","1109"
"","","","","","jsShapes","6","89512","0.0-3.0-0.3","665ca2f40cef08da33075320","6047ff03cb24e712c17514b7","665ca37a054b2bee4332213c","","","[0,1]","left","[0,1]","0","4659","0.4833333333333333","4066"
"","","","","","jsShapes","7","93600","0.0-3.0-0.4","665ca2f40cef08da33075320","6047ff03cb24e712c17514b7","665ca37a054b2bee4332213c","","","[2,2]","right","[2,1]","1","2329","0.050000000000000044","1749"
"","","","","","jsShapes","8","96670","0.0-3.0-0.5","665ca2f40cef08da33075320","6047ff03cb24e712c17514b7","665ca37a054b2bee4332213c","","","[0,1]","right","[1,2]","0","2138","1","921"
"","","","","","jsShapes","9","99390","0.0-3.0-0.6","665ca2f40cef08da33075320","6047ff03cb24e712c17514b7","665ca37a054b2bee4332213c","","","[4,4]","left","[0,2]","0","1790","0.01666666666666672","909"
"","","","","","jsShapes","10","107500","0.0-3.0-0.7","665ca2f40cef08da33075320","6047ff03cb24e712c17514b7","665ca37a054b2bee4332213c","","","[0,1]","left","[0,4]","0","6637","0.4916666666666667","1457"
"","","","","","jsShapes","11","110869","0.0-3.0-0.8","665ca2f40cef08da33075320","6047ff03cb24e712c17514b7","665ca37a054b2bee4332213c","","","[0,1]","left","[1,0]","1","2251","0.47777777777777775","1118"
"","","","","","jsShapes","12","113823","0.0-3.0-0.9","665ca2f40cef08da33075320","6047ff03cb24e712c17514b7","665ca37a054b2bee4332213c","","","[2,2]","left","[0,3]","0","1791","0.033333333333333326","1147"
"","","","","","jsShapes","13","116909","0.0-3.0-0.10","665ca2f40cef08da33075320","6047ff03cb24e712c17514b7","665ca37a054b2bee4332213c","","","[3,3]","right","[4,1]","1","1883","0.01666666666666672","1201"
"","","","","","jsShapes","14","120396","0.0-3.0-0.11","665ca2f40cef08da33075320","6047ff03cb24e712c17514b7","665ca37a054b2bee4332213c","","","[0,1]","right","[1,3]","0","2718","1","760"
"","","","","","jsShapes","15","131710","0.0-3.0-0.12","665ca2f40cef08da33075320","6047ff03cb24e712c17514b7","665ca37a054b2bee4332213c","","","[4,3]","left","[0,1]","1","8497","0.005555555555555536","2810"
"","","","","","jsShapes","16","147093","0.0-3.0-0.13","665ca2f40cef08da33075320","6047ff03cb24e712c17514b7","665ca37a054b2bee4332213c","","","[2,2]","right","[4,1]","0","13416","0.019444444444444486","1952"
"","","","","","jsShapes","17","152048","0.0-3.0-0.14","665ca2f40cef08da33075320","6047ff03cb24e712c17514b7","665ca37a054b2bee4332213c","","","[0,1]","left","[2,0]","1","3796","0.4916666666666667","1154"
"","","","","","jsShapes","18","155069","0.0-3.0-0.15","665ca2f40cef08da33075320","6047ff03cb24e712c17514b7","665ca37a054b2bee4332213c","","","[0,1]","right","[3,1]","1","2069","0.9861111111111112","935"
"","","","","","survey-text","19","165547","0.0-4.0","665ca2f40cef08da33075320","6047ff03cb24e712c17514b7","665ca37a054b2bee4332213c","10473","","","","","{""worker_comments"":""Everything went well.""}","","",""
"","","","","","instructions","20","167227","0.0-5.0","665ca2f40cef08da33075320","6047ff03cb24e712c17514b7","665ca37a054b2bee4332213c","1680","[{""page_index"":0,""viewing_time"":1680}]","","","","","","",""
"success","timeout","failed_images","failed_audio","failed_video","trial_type","trial_index","time_elapsed","internal_node_id","STUDY_ID","PROLIFIC_PID","SESSION_ID","rt","view_history","shapes","occluder","options","response","RT","confidence","confidence_RT"
"true","false","[]","[]","[]","preload","0","402","0.0-0.0","665ca2f40cef08da33075320","5fa7f2d31418d35a96331337","665daa5c6d2e1b4ff235b902","","","","","","","","",""
"true","","","","","fullscreen","1","4401","0.0-1.0","665ca2f40cef08da33075320","5fa7f2d31418d35a96331337","665daa5c6d2e1b4ff235b902","2989","","","","","","","",""
"","","","","","instructions","2","69653","0.0-2.0","665ca2f40cef08da33075320","5fa7f2d31418d35a96331337","665daa5c6d2e1b4ff235b902","65251","[{""page_index"":0,""viewing_time"":6788},{""page_index"":1,""viewing_time"":38119},{""page_index"":2,""viewing_time"":13640},{""page_index"":3,""viewing_time"":4424},{""page_index"":4,""viewing_time"":2279}]","","","","","","",""
"","","","","","jsShapes","3","82829","0.0-3.0-0.0","665ca2f40cef08da33075320","5fa7f2d31418d35a96331337","665daa5c6d2e1b4ff235b902","","","[3,0]","right","[1,2]","1","9587.400000002235","0.40625","3564.099999997765"
"","","","","","jsShapes","4","99056","0.0-3.0-0.1","665ca2f40cef08da33075320","5fa7f2d31418d35a96331337","665daa5c6d2e1b4ff235b902","","","[0,1]","right","[2,1]","1","14164.29999999702","0.900390625","2044.9000000022352"
"","","","","","jsShapes","5","107054","0.0-3.0-0.2","665ca2f40cef08da33075320","5fa7f2d31418d35a96331337","665daa5c6d2e1b4ff235b902","","","[4,3]","left","[3,0]","0","5315.5","0.498046875","2660"
"","","","","","jsShapes","6","113501","0.0-3.0-0.3","665ca2f40cef08da33075320","5fa7f2d31418d35a96331337","665daa5c6d2e1b4ff235b902","","","[0,1]","left","[0,3]","0","4357.300000000745","0.630859375","2085"
"","","","","","jsShapes","7","122832","0.0-3.0-0.4","665ca2f40cef08da33075320","5fa7f2d31418d35a96331337","665daa5c6d2e1b4ff235b902","","","[0,1]","right","[1,0]","0","5388","0.388671875","3932.60000000149"
"","","","","","jsShapes","8","130063","0.0-3.0-0.5","665ca2f40cef08da33075320","5fa7f2d31418d35a96331337","665daa5c6d2e1b4ff235b902","","","[2,0]","right","[0,1]","1","4611","0.44921875","2612.2000000029802"
"","","","","","jsShapes","9","141808","0.0-3.0-0.6","665ca2f40cef08da33075320","5fa7f2d31418d35a96331337","665daa5c6d2e1b4ff235b902","","","[3,4]","left","[2,0]","1","10284.199999999255","0.4765625","1459.300000000745"
"","","","","","jsShapes","10","148606","0.0-3.0-0.7","665ca2f40cef08da33075320","5fa7f2d31418d35a96331337","665daa5c6d2e1b4ff235b902","","","[0,1]","left","[2,0]","1","4930.39999999851","0.638671875","1852.1000000014901"
"","","","","","jsShapes","11","154138","0.0-3.0-0.8","665ca2f40cef08da33075320","5fa7f2d31418d35a96331337","665daa5c6d2e1b4ff235b902","","","[2,0]","right","[1,3]","1","4372.699999999255","0.353515625","1147.699999999255"
"","","","","","jsShapes","12","159435","0.0-3.0-0.9","665ca2f40cef08da33075320","5fa7f2d31418d35a96331337","665daa5c6d2e1b4ff235b902","","","[0,1]","left","[0,3]","0","3984.099999997765","0.546875","1300.2000000029802"
"","","","","","jsShapes","13","167350","0.0-3.0-0.10","665ca2f40cef08da33075320","5fa7f2d31418d35a96331337","665daa5c6d2e1b4ff235b902","","","[4,3]","left","[0,1]","1","6582.699999999255","0.48828125","1316.4000000022352"
"","","","","","jsShapes","14","174398","0.0-3.0-0.11","665ca2f40cef08da33075320","5fa7f2d31418d35a96331337","665daa5c6d2e1b4ff235b902","","","[0,1]","right","[0,1]","1","5509","0.59375","1523.3999999985099"
"","","","","","jsShapes","15","179196","0.0-3.0-0.12","665ca2f40cef08da33075320","5fa7f2d31418d35a96331337","665daa5c6d2e1b4ff235b902","","","[0,1]","right","[2,1]","1","3500.800000000745","0.53515625","1283.9000000022352"
"","","","","","jsShapes","16","186193","0.0-3.0-0.13","665ca2f40cef08da33075320","5fa7f2d31418d35a96331337","665daa5c6d2e1b4ff235b902","","","[2,4]","left","[0,4]","0","5686.5","0.509765625","1300.0999999977648"
"","","","","","jsShapes","17","190276","0.0-3.0-0.14","665ca2f40cef08da33075320","5fa7f2d31418d35a96331337","665daa5c6d2e1b4ff235b902","","","[0,1]","left","[3,0]","1","3009.2000000029802","0.505859375","1060"
"","","","","","jsShapes","18","195192","0.0-3.0-0.15","665ca2f40cef08da33075320","5fa7f2d31418d35a96331337","665daa5c6d2e1b4ff235b902","","","[2,0]","right","[1,3]","0","3502.300000000745","0.4765625","1404.5999999977648"
"","","","","","survey-text","19","206712","0.0-4.0","665ca2f40cef08da33075320","5fa7f2d31418d35a96331337","665daa5c6d2e1b4ff235b902","11513","","","","","{""worker_comments"":""none.""}","","",""
"","","","","","instructions","20","213933","0.0-5.0","665ca2f40cef08da33075320","5fa7f2d31418d35a96331337","665daa5c6d2e1b4ff235b902","7221","[{""page_index"":0,""viewing_time"":7221}]","","","","","","",""
"success","timeout","failed_images","failed_audio","failed_video","trial_type","trial_index","time_elapsed","internal_node_id","STUDY_ID","PROLIFIC_PID","SESSION_ID","rt","view_history","shapes","occluder","options","response","RT","confidence","confidence_RT"
"true","false","[]","[]","[]","preload","0","28","0.0-0.0","665ca2f40cef08da33075320","634d741829f79418ced2676d","665ca37dc73c7565b3c05e52","","","","","","","","",""
"true","","","","","fullscreen","1","6510","0.0-1.0","665ca2f40cef08da33075320","634d741829f79418ced2676d","665ca37dc73c7565b3c05e52","5480","","","","","","","",""
"","","","","","instructions","2","40394","0.0-2.0","665ca2f40cef08da33075320","634d741829f79418ced2676d","665ca37dc73c7565b3c05e52","33882","[{""page_index"":0,""viewing_time"":4646},{""page_index"":1,""viewing_time"":13172},{""page_index"":2,""viewing_time"":10965},{""page_index"":3,""viewing_time"":3673},{""page_index"":4,""viewing_time"":1426}]","","","","","","",""
"","","","","","jsShapes","3","72808","0.0-3.0-0.0","665ca2f40cef08da33075320","634d741829f79418ced2676d","665ca37dc73c7565b3c05e52","","","[4,0]","left","[3,0]","0","23419.999999999993","0.6","8968"
"","","","","","jsShapes","4","81841","0.0-3.0-0.1","665ca2f40cef08da33075320","634d741829f79418ced2676d","665ca37dc73c7565b3c05e52","","","[2,2]","right","[1,0]","0","5001","0.7355555555555555","4013"
"","","","","","jsShapes","5","86607","0.0-3.0-0.2","665ca2f40cef08da33075320","634d741829f79418ced2676d","665ca37dc73c7565b3c05e52","","","[0,1]","left","[2,0]","0","2904","0.78","1846"
"","","","","","jsShapes","6","103108","0.0-3.0-0.3","665ca2f40cef08da33075320","634d741829f79418ced2676d","665ca37dc73c7565b3c05e52","","","[0,1]","right","[2,1]","0","14883","0.7577777777777778","1600"
"","","","","","jsShapes","7","111923","0.0-3.0-0.4","665ca2f40cef08da33075320","634d741829f79418ced2676d","665ca37dc73c7565b3c05e52","","","[2,4]","left","[0,3]","0","7715","0.76","1083"
"","","","","","jsShapes","8","119858","0.0-3.0-0.5","665ca2f40cef08da33075320","634d741829f79418ced2676d","665ca37dc73c7565b3c05e52","","","[0,1]","right","[4,1]","0","6042","0.7511111111111111","1875"
"","","","","","jsShapes","9","125074","0.0-3.0-0.6","665ca2f40cef08da33075320","634d741829f79418ced2676d","665ca37dc73c7565b3c05e52","","","[0,1]","left","[2,0]","0","3929","0.7755555555555556","1268"
"","","","","","jsShapes","10","136475","0.0-3.0-0.7","665ca2f40cef08da33075320","634d741829f79418ced2676d","665ca37dc73c7565b3c05e52","","","[1,2]","right","[1,0]","1","9633","0.8066666666666666","1750"
"","","","","","jsShapes","11","148075","0.0-3.0-0.8","665ca2f40cef08da33075320","634d741829f79418ced2676d","665ca37dc73c7565b3c05e52","","","[0,1]","left","[3,0]","1","9822","0.31999999999999995","1762"
"","","","","","jsShapes","12","178908","0.0-3.0-0.9","665ca2f40cef08da33075320","634d741829f79418ced2676d","665ca37dc73c7565b3c05e52","","","[3,0]","right","[1,2]","1","27938","0.6711111111111111","2877"
"","","","","","jsShapes","13","185675","0.0-3.0-0.10","665ca2f40cef08da33075320","634d741829f79418ced2676d","665ca37dc73c7565b3c05e52","","","[0,1]","right","[1,2]","0","4876","1","1873"
"","","","","","jsShapes","14","203058","0.0-3.0-0.11","665ca2f40cef08da33075320","634d741829f79418ced2676d","665ca37dc73c7565b3c05e52","","","[3,2]","left","[2,0]","0","13791","0.3111111111111111","3576"
"","","","","","jsShapes","15","222059","0.0-3.0-0.12","665ca2f40cef08da33075320","634d741829f79418ced2676d","665ca37dc73c7565b3c05e52","","","[1,2]","left","[2,0]","0","17175","0.3111111111111111","1807"
"","","","","","jsShapes","16","226142","0.0-3.0-0.13","665ca2f40cef08da33075320","634d741829f79418ced2676d","665ca37dc73c7565b3c05e52","","","[0,1]","left","[4,0]","1","2832","1","1234"
"","","","","","jsShapes","17","229974","0.0-3.0-0.14","665ca2f40cef08da33075320","634d741829f79418ced2676d","665ca37dc73c7565b3c05e52","","","[0,1]","right","[1,0]","0","2656","1","1160"
"","","","","","jsShapes","18","234659","0.0-3.0-0.15","665ca2f40cef08da33075320","634d741829f79418ced2676d","665ca37dc73c7565b3c05e52","","","[1,0]","right","[2,1]","0","3674","0.3466666666666667","992"
"","","","","","survey-text","19","259632","0.0-4.0","665ca2f40cef08da33075320","634d741829f79418ced2676d","665ca37dc73c7565b3c05e52","24969","","","","","{""worker_comments"":""Did not understand a lot""}","","",""
"","","","","","instructions","20","263406","0.0-5.0","665ca2f40cef08da33075320","634d741829f79418ced2676d","665ca37dc73c7565b3c05e52","3774","[{""page_index"":0,""viewing_time"":3774}]","","","","","","",""
"success","timeout","failed_images","failed_audio","failed_video","trial_type","trial_index","time_elapsed","internal_node_id","STUDY_ID","PROLIFIC_PID","SESSION_ID","rt","view_history","shapes","occluder","options","response","RT","confidence","confidence_RT"
"true","false","[]","[]","[]","preload","0","36","0.0-0.0","665ca2f40cef08da33075320","63068110447ef1aaa9660816","665daa5aa65dcd61e383dcd0","","","","","","","","",""
"true","","","","","fullscreen","1","2394","0.0-1.0","665ca2f40cef08da33075320","63068110447ef1aaa9660816","665daa5aa65dcd61e383dcd0","1355","","","","","","","",""
"","","","","","instructions","2","15965","0.0-2.0","665ca2f40cef08da33075320","63068110447ef1aaa9660816","665daa5aa65dcd61e383dcd0","13571","[{""page_index"":0,""viewing_time"":2459},{""page_index"":1,""viewing_time"":6848},{""page_index"":2,""viewing_time"":1312},{""page_index"":3,""viewing_time"":2208},{""page_index"":4,""viewing_time"":744}]","","","","","","",""
"","","","","","jsShapes","3","22318","0.0-3.0-0.0","665ca2f40cef08da33075320","63068110447ef1aaa9660816","665daa5aa65dcd61e383dcd0","","","[2,4]","left","[4,0]","1","4859","0.6814814814814815","1479"
"","","","","","jsShapes","4","26270","0.0-3.0-0.1","665ca2f40cef08da33075320","63068110447ef1aaa9660816","665daa5aa65dcd61e383dcd0","","","[3,0]","right","[4,1]","1","2765.5999999940395","0.49444444444444446","1173.9000000059605"
"","","","","","jsShapes","5","30242","0.0-3.0-0.2","665ca2f40cef08da33075320","63068110447ef1aaa9660816","665daa5aa65dcd61e383dcd0","","","[0,1]","right","[2,1]","1","2558.699999988079","0.6314814814814815","1401.9000000059605"
"","","","","","jsShapes","6","34103","0.0-3.0-0.3","665ca2f40cef08da33075320","63068110447ef1aaa9660816","665daa5aa65dcd61e383dcd0","","","[0,1]","left","[0,1]","0","2298.300000011921","0.9018518518518519","1548.9000000059605"
"","","","","","jsShapes","7","38020","0.0-3.0-0.4","665ca2f40cef08da33075320","63068110447ef1aaa9660816","665daa5aa65dcd61e383dcd0","","","[0,1]","left","[3,0]","0","2829.0999999940395","0.8962962962962963","1085"
"","","","","","jsShapes","8","42360","0.0-3.0-0.5","665ca2f40cef08da33075320","63068110447ef1aaa9660816","665daa5aa65dcd61e383dcd0","","","[1,4]","right","[3,1]","0","2952.699999988079","1","1375.9000000059605"
"","","","","","jsShapes","9","45534","0.0-3.0-0.6","665ca2f40cef08da33075320","63068110447ef1aaa9660816","665daa5aa65dcd61e383dcd0","","","[0,1]","right","[1,2]","0","1908.199999988079","0.512962962962963","1252"
"","","","","","jsShapes","10","49069","0.0-3.0-0.7","665ca2f40cef08da33075320","63068110447ef1aaa9660816","665daa5aa65dcd61e383dcd0","","","[2,3]","left","[0,4]","0","2510.399999976158","0.4648148148148148","1010.7000000178814"
"","","","","","jsShapes","11","52951","0.0-3.0-0.8","665ca2f40cef08da33075320","63068110447ef1aaa9660816","665daa5aa65dcd61e383dcd0","","","[0,1]","left","[0,4]","1","2728","0.5055555555555555","1152.9000000059605"
"","","","","","jsShapes","12","56173","0.0-3.0-0.9","665ca2f40cef08da33075320","63068110447ef1aaa9660816","665daa5aa65dcd61e383dcd0","","","[1,4]","right","[1,2]","1","2094","0.9851851851851852","1108.800000011921"
"","","","","","jsShapes","13","59291","0.0-3.0-0.10","665ca2f40cef08da33075320","63068110447ef1aaa9660816","665daa5aa65dcd61e383dcd0","","","[4,4]","left","[3,0]","1","2079.5","0.9314814814814815","1025"
"","","","","","jsShapes","14","62631","0.0-3.0-0.11","665ca2f40cef08da33075320","63068110447ef1aaa9660816","665daa5aa65dcd61e383dcd0","","","[0,1]","right","[1,0]","0","2249.5","0.825925925925926","1084.800000011921"
"","","","","","jsShapes","15","66027","0.0-3.0-0.12","665ca2f40cef08da33075320","63068110447ef1aaa9660816","665daa5aa65dcd61e383dcd0","","","[0,1]","left","[0,4]","1","2373.300000011921","0.7259259259259259","1003.1999999880791"
"","","","","","jsShapes","16","68916","0.0-3.0-0.13","665ca2f40cef08da33075320","63068110447ef1aaa9660816","665daa5aa65dcd61e383dcd0","","","[0,1]","right","[1,4]","0","1769.4000000059605","0.8092592592592592","1105.9000000059605"
"","","","","","jsShapes","17","72027","0.0-3.0-0.14","665ca2f40cef08da33075320","63068110447ef1aaa9660816","665daa5aa65dcd61e383dcd0","","","[2,0]","right","[0,1]","0","2172.199999988079","0.8296296296296296","927.9000000059605"
"","","","","","jsShapes","18","75353","0.0-3.0-0.15","665ca2f40cef08da33075320","63068110447ef1aaa9660816","665daa5aa65dcd61e383dcd0","","","[3,0]","left","[1,0]","0","2393.5","0.812962962962963","919.9000000059605"
"","","","","","survey-text","19","96722","0.0-4.0","665ca2f40cef08da33075320","63068110447ef1aaa9660816","665daa5aa65dcd61e383dcd0","21365","","","","","{""worker_comments"":""Tried to be as logical about it as possible based on the info that was given.""}","","",""
"","","","","","instructions","20","99182","0.0-5.0","665ca2f40cef08da33075320","63068110447ef1aaa9660816","665daa5aa65dcd61e383dcd0","2459","[{""page_index"":0,""viewing_time"":2459}]","","","","","","",""
"success","timeout","failed_images","failed_audio","failed_video","trial_type","trial_index","time_elapsed","internal_node_id","STUDY_ID","PROLIFIC_PID","SESSION_ID","rt","view_history","shapes","occluder","options","response","RT","confidence","confidence_RT"
"true","false","[]","[]","[]","preload","0","32","0.0-0.0","665ca2f40cef08da33075320","66398f6666729e9c617cf032","665daa580a10db80b1723850","","","","","","","","",""
"true","","","","","fullscreen","1","6727","0.0-1.0","665ca2f40cef08da33075320","66398f6666729e9c617cf032","665daa580a10db80b1723850","5688","","","","","","","",""
"","","","","","instructions","2","59886","0.0-2.0","665ca2f40cef08da33075320","66398f6666729e9c617cf032","665daa580a10db80b1723850","53159","[{""page_index"":0,""viewing_time"":7013},{""page_index"":1,""viewing_time"":24192},{""page_index"":2,""viewing_time"":13697},{""page_index"":3,""viewing_time"":6352},{""page_index"":4,""viewing_time"":1904}]","","","","","","",""
"","","","","","jsShapes","3","88659","0.0-3.0-0.0","665ca2f40cef08da33075320","66398f6666729e9c617cf032","665daa580a10db80b1723850","","","[2,3]","right","[1,0]","1","20945.79999999702","0","7796.70000000298"
"","","","","","jsShapes","4","105441","0.0-3.0-0.1","665ca2f40cef08da33075320","66398f6666729e9c617cf032","665daa580a10db80b1723850","","","[0,1]","right","[2,1]","1","14154.89999999851","1","2624.4000000059605"
"","","","","","jsShapes","5","119218","0.0-3.0-0.2","665ca2f40cef08da33075320","66398f6666729e9c617cf032","665daa580a10db80b1723850","","","[3,2]","left","[0,2]","0","11070.90000000596","0.5552380952380953","2690.1999999955297"
"","","","","","jsShapes","6","128703","0.0-3.0-0.3","665ca2f40cef08da33075320","66398f6666729e9c617cf032","665daa580a10db80b1723850","","","[0,1]","left","[0,1]","0","6831.10000000149","0.5019047619047619","2640.10000000149"
"","","","","","jsShapes","7","142697","0.0-3.0-0.4","665ca2f40cef08da33075320","66398f6666729e9c617cf032","665daa580a10db80b1723850","","","[2,2]","left","[4,0]","0","11201.79999999702","0","2776"
"","","","","","jsShapes","8","151747","0.0-3.0-0.5","665ca2f40cef08da33075320","66398f6666729e9c617cf032","665daa580a10db80b1723850","","","[0,1]","right","[1,0]","0","6553.5","1","2486.1999999955297"
"","","","","","jsShapes","9","160481","0.0-3.0-0.6","665ca2f40cef08da33075320","66398f6666729e9c617cf032","665daa580a10db80b1723850","","","[4,3]","right","[3,1]","1","5982.60000000149","0.0009523809523809268","2736.0999999940395"
"","","","","","jsShapes","10","173257","0.0-3.0-0.7","665ca2f40cef08da33075320","66398f6666729e9c617cf032","665daa580a10db80b1723850","","","[0,1]","left","[0,2]","0","9954.20000000298","0.7114285714285714","2810.1999999955297"
"","","","","","jsShapes","11","180588","0.0-3.0-0.8","665ca2f40cef08da33075320","66398f6666729e9c617cf032","665daa580a10db80b1723850","","","[0,1]","right","[4,1]","1","5227.19999999553","1","2092.3000000044703"
"","","","","","jsShapes","12","189004","0.0-3.0-0.9","665ca2f40cef08da33075320","66398f6666729e9c617cf032","665daa580a10db80b1723850","","","[0,1]","left","[3,0]","1","5945.89999999851","0.5895238095238096","2458.2000000029802"
"","","","","","jsShapes","13","199458","0.0-3.0-0.10","665ca2f40cef08da33075320","66398f6666729e9c617cf032","665daa580a10db80b1723850","","","[1,0]","left","[0,3]","1","7946.60000000149","0.7285714285714286","2501.7000000029802"
"","","","","","jsShapes","14","207640","0.0-3.0-0.11","665ca2f40cef08da33075320","66398f6666729e9c617cf032","665daa580a10db80b1723850","","","[4,3]","right","[4,1]","1","4853","0.7476190476190476","3318.8000000044703"
"","","","","","jsShapes","15","215840","0.0-3.0-0.12","665ca2f40cef08da33075320","66398f6666729e9c617cf032","665daa580a10db80b1723850","","","[0,1]","right","[2,1]","1","6127.10000000149","1","2067.89999999851"
"","","","","","jsShapes","16","222185","0.0-3.0-0.13","665ca2f40cef08da33075320","66398f6666729e9c617cf032","665daa580a10db80b1723850","","","[0,1]","left","[2,0]","1","4104.10000000149","0.62","2228.2000000029802"
"","","","","","jsShapes","17","228130","0.0-3.0-0.14","665ca2f40cef08da33075320","66398f6666729e9c617cf032","665daa580a10db80b1723850","","","[4,0]","right","[1,0]","0","3759.2000000029802","0","2176.1999999955297"
"","","","","","jsShapes","18","234542","0.0-3.0-0.15","665ca2f40cef08da33075320","66398f6666729e9c617cf032","665daa580a10db80b1723850","","","[2,3]","left","[4,0]","0","4086.5","0","2310.5"
"","","","","","survey-text","19","423373","0.0-4.0","665ca2f40cef08da33075320","66398f6666729e9c617cf032","665daa580a10db80b1723850","188827","","","","","{""worker_comments"":""there was no rule if the right shape was triangle then left would have been a circle but the opposite rule was true; therefore in case of right shape being triangle I have chosen a circle with 50% confidence;""}","","",""
"","","","","","instructions","20","427351","0.0-5.0","665ca2f40cef08da33075320","66398f6666729e9c617cf032","665daa580a10db80b1723850","3977","[{""page_index"":0,""viewing_time"":3977}]","","","","","","",""
"success","timeout","failed_images","failed_audio","failed_video","trial_type","trial_index","time_elapsed","internal_node_id","STUDY_ID","PROLIFIC_PID","SESSION_ID","rt","view_history","shapes","occluder","options","response","RT","confidence","confidence_RT"
"true","false","[]","[]","[]","preload","0","574","0.0-0.0","665ca2f40cef08da33075320","5f58e1e03a55aa08d78662c3","665ca404f05490e862a381cd","","","","","","","","",""
"true","","","","","fullscreen","1","3058","0.0-1.0","665ca2f40cef08da33075320","5f58e1e03a55aa08d78662c3","665ca404f05490e862a381cd","1480","","","","","","","",""
"","","","","","instructions","2","61922","0.0-2.0","665ca2f40cef08da33075320","5f58e1e03a55aa08d78662c3","665ca404f05490e862a381cd","58863","[{""page_index"":0,""viewing_time"":1964},{""page_index"":1,""viewing_time"":48711},{""page_index"":2,""viewing_time"":6143},{""page_index"":3,""viewing_time"":1373},{""page_index"":4,""viewing_time"":672}]","","","","","","",""
"","","","","","jsShapes","3","71832","0.0-3.0-0.0","665ca2f40cef08da33075320","5f58e1e03a55aa08d78662c3","665ca404f05490e862a381cd","","","[0,1]","right","[4,1]","1","7580","0.9934782608695653","2308"
"","","","","","jsShapes","4","83165","0.0-3.0-0.1","665ca2f40cef08da33075320","5f58e1e03a55aa08d78662c3","665ca404f05490e862a381cd","","","[1,3]","right","[1,2]","1","9098","0.9652173913043478","2217"
"","","","","","jsShapes","5","89414","0.0-3.0-0.2","665ca2f40cef08da33075320","5f58e1e03a55aa08d78662c3","665ca404f05490e862a381cd","","","[2,2]","left","[0,1]","1","4508","1","1727"
"","","","","","jsShapes","6","93115","0.0-3.0-0.3","665ca2f40cef08da33075320","5f58e1e03a55aa08d78662c3","665ca404f05490e862a381cd","","","[0,1]","left","[1,0]","1","2102.0000000000146","0.9978260869565218","1596.9999999999854"
"","","","","","jsShapes","7","97914","0.0-3.0-0.4","665ca2f40cef08da33075320","5f58e1e03a55aa08d78662c3","665ca404f05490e862a381cd","","","[0,1]","right","[2,1]","1","3113","0.9978260869565218","1667"
"","","","","","jsShapes","8","104297","0.0-3.0-0.5","665ca2f40cef08da33075320","5f58e1e03a55aa08d78662c3","665ca404f05490e862a381cd","","","[1,4]","left","[0,4]","1","5070.000000000015","1","1290.9999999999854"
"","","","","","jsShapes","9","109547","0.0-3.0-0.6","665ca2f40cef08da33075320","5f58e1e03a55aa08d78662c3","665ca404f05490e862a381cd","","","[2,3]","right","[1,0]","1","3945","1","1284.0000000000146"
"","","","","","jsShapes","10","113131","0.0-3.0-0.7","665ca2f40cef08da33075320","5f58e1e03a55aa08d78662c3","665ca404f05490e862a381cd","","","[0,1]","left","[2,0]","1","2099.0000000000146","1","1479"
"","","","","","jsShapes","11","117381","0.0-3.0-0.8","665ca2f40cef08da33075320","5f58e1e03a55aa08d78662c3","665ca404f05490e862a381cd","","","[0,1]","right","[3,1]","1","2706.9999999999854","1","1521"
"","","","","","jsShapes","12","122047","0.0-3.0-0.9","665ca2f40cef08da33075320","5f58e1e03a55aa08d78662c3","665ca404f05490e862a381cd","","","[0,1]","left","[1,0]","1","3200.9999999999854","1","1456"
"","","","","","jsShapes","13","133213","0.0-3.0-0.10","665ca2f40cef08da33075320","5f58e1e03a55aa08d78662c3","665ca404f05490e862a381cd","","","[3,0]","right","[2,1]","0","9567","0.9739130434782609","1590"
"","","","","","jsShapes","14","138530","0.0-3.0-0.11","665ca2f40cef08da33075320","5f58e1e03a55aa08d78662c3","665ca404f05490e862a381cd","","","[2,2]","left","[3,0]","0","3238.999999999971","0.9652173913043478","2073"
"","","","","","jsShapes","15","142847","0.0-3.0-0.12","665ca2f40cef08da33075320","5f58e1e03a55aa08d78662c3","665ca404f05490e862a381cd","","","[3,2]","right","[3,1]","0","2283.000000000029","0.991304347826087","2024.999999999971"
"","","","","","jsShapes","16","145947","0.0-3.0-0.13","665ca2f40cef08da33075320","5f58e1e03a55aa08d78662c3","665ca404f05490e862a381cd","","","[0,1]","left","[0,3]","0","2066","1","1015"
"","","","","","jsShapes","17","149213","0.0-3.0-0.14","665ca2f40cef08da33075320","5f58e1e03a55aa08d78662c3","665ca404f05490e862a381cd","","","[0,1]","right","[1,2]","0","2161","1","1085"
"","","","","","jsShapes","18","153813","0.0-3.0-0.15","665ca2f40cef08da33075320","5f58e1e03a55aa08d78662c3","665ca404f05490e862a381cd","","","[2,0]","left","[2,0]","0","3148.000000000029","1","1440.999999999971"
"","","","","","survey-text","19","156942","0.0-4.0","665ca2f40cef08da33075320","5f58e1e03a55aa08d78662c3","665ca404f05490e862a381cd","3125","","","","","{""worker_comments"":""""}","","",""
"","","","","","instructions","20","158583","0.0-5.0","665ca2f40cef08da33075320","5f58e1e03a55aa08d78662c3","665ca404f05490e862a381cd","1640","[{""page_index"":0,""viewing_time"":1640}]","","","","","","",""
