"success","timeout","failed_images","failed_audio","failed_video","trial_type","trial_index","time_elapsed","internal_node_id","STUDY_ID","PROLIFIC_PID","SESSION_ID","rt","view_history","shapes","occluder","options","response","RT","confidence","confidence_RT"
"true","false","[]","[]","[]","preload","0","28","0.0-0.0","664d169a152835c08e3e5d2a","6329e5f4b69d5839344c8d6c","664dfe5c899ec7be94f41aa6","","","","","","","","",""
"true","","","","","fullscreen","1","12913","0.0-1.0","664d169a152835c08e3e5d2a","6329e5f4b69d5839344c8d6c","664dfe5c899ec7be94f41aa6","11882","","","","","","","",""
"","","","","","instructions","2","75755","0.0-2.0","664d169a152835c08e3e5d2a","6329e5f4b69d5839344c8d6c","664dfe5c899ec7be94f41aa6","62841","[{""page_index"":0,""viewing_time"":1501},{""page_index"":1,""viewing_time"":42700},{""page_index"":2,""viewing_time"":14206},{""page_index"":3,""viewing_time"":3322},{""page_index"":4,""viewing_time"":1112}]","","","","","","",""
"","","","","","jsShapes","3","107512","0.0-3.0-0.0","664d169a152835c08e3e5d2a","6329e5f4b69d5839344c8d6c","664dfe5c899ec7be94f41aa6","","","[3,0]","right","[1,3]","1","28663","0.567391304347826","3077"
"","","","","","jsShapes","4","115712","0.0-3.0-0.1","664d169a152835c08e3e5d2a","6329e5f4b69d5839344c8d6c","664dfe5c899ec7be94f41aa6","","","[0,1]","left","[0,1]","0","5959.000000000015","0.8260869565217391","2226"
"","","","","","jsShapes","5","121745","0.0-3.0-0.2","664d169a152835c08e3e5d2a","6329e5f4b69d5839344c8d6c","664dfe5c899ec7be94f41aa6","","","[0,1]","right","[3,1]","1","4363.999999999985","0.7304347826086957","1665"
"","","","","","jsShapes","6","127411","0.0-3.0-0.3","664d169a152835c08e3e5d2a","6329e5f4b69d5839344c8d6c","664dfe5c899ec7be94f41aa6","","","[3,4]","left","[0,4]","0","4272","0.6543478260869565","1386"
"","","","","","jsShapes","7","134111","0.0-3.0-0.4","664d169a152835c08e3e5d2a","6329e5f4b69d5839344c8d6c","664dfe5c899ec7be94f41aa6","","","[4,3]","left","[2,0]","1","5244","0.6543478260869565","1443"
"","","","","","jsShapes","8","138261","0.0-3.0-0.5","664d169a152835c08e3e5d2a","6329e5f4b69d5839344c8d6c","664dfe5c899ec7be94f41aa6","","","[2,0]","right","[1,2]","0","2784","0.7673913043478261","1357"
"","","","","","jsShapes","9","142878","0.0-3.0-0.6","664d169a152835c08e3e5d2a","6329e5f4b69d5839344c8d6c","664dfe5c899ec7be94f41aa6","","","[0,1]","right","[1,3]","0","2786.999999999971","0.9391304347826087","1810"
"","","","","","jsShapes","10","146961","0.0-3.0-0.7","664d169a152835c08e3e5d2a","6329e5f4b69d5839344c8d6c","664dfe5c899ec7be94f41aa6","","","[0,1]","left","[0,4]","0","2363","1","1707"
"","","","","","jsShapes","11","151978","0.0-3.0-0.8","664d169a152835c08e3e5d2a","6329e5f4b69d5839344c8d6c","664dfe5c899ec7be94f41aa6","","","[3,3]","left","[3,0]","1","3725","0.6586956521739131","1285"
"","","","","","jsShapes","12","155794","0.0-3.0-0.9","664d169a152835c08e3e5d2a","6329e5f4b69d5839344c8d6c","664dfe5c899ec7be94f41aa6","","","[0,1]","left","[4,0]","0","2748","0.9978260869565218","1057"
"","","","","","jsShapes","13","160428","0.0-3.0-0.10","664d169a152835c08e3e5d2a","6329e5f4b69d5839344c8d6c","664dfe5c899ec7be94f41aa6","","","[0,1]","right","[1,0]","0","3531","0.9043478260869565","1090"
"","","","","","jsShapes","14","164777","0.0-3.0-0.11","664d169a152835c08e3e5d2a","6329e5f4b69d5839344c8d6c","664dfe5c899ec7be94f41aa6","","","[3,4]","right","[2,1]","1","3502.999999999971","1","833"
"","","","","","jsShapes","15","168994","0.0-3.0-0.12","664d169a152835c08e3e5d2a","6329e5f4b69d5839344c8d6c","664dfe5c899ec7be94f41aa6","","","[3,4]","right","[1,2]","0","2648","0.6217391304347826","1550"
"","","","","","jsShapes","16","172728","0.0-3.0-0.13","664d169a152835c08e3e5d2a","6329e5f4b69d5839344c8d6c","664dfe5c899ec7be94f41aa6","","","[3,4]","left","[0,4]","0","2556","0.7956521739130434","1165"
"","","","","","jsShapes","17","178394","0.0-3.0-0.14","664d169a152835c08e3e5d2a","6329e5f4b69d5839344c8d6c","664dfe5c899ec7be94f41aa6","","","[0,1]","left","[4,0]","1","4601","1","1051"
"","","","","","jsShapes","18","181894","0.0-3.0-0.15","664d169a152835c08e3e5d2a","6329e5f4b69d5839344c8d6c","664dfe5c899ec7be94f41aa6","","","[0,1]","right","[0,1]","1","2166.000000000029","0.8434782608695652","1317.999999999971"
"","","","","","survey-text","19","184320","0.0-4.0","664d169a152835c08e3e5d2a","6329e5f4b69d5839344c8d6c","664dfe5c899ec7be94f41aa6","2420","","","","","{""worker_comments"":""""}","","",""
"","","","","","instructions","20","190584","0.0-5.0","664d169a152835c08e3e5d2a","6329e5f4b69d5839344c8d6c","664dfe5c899ec7be94f41aa6","6264","[{""page_index"":0,""viewing_time"":6264}]","","","","","","",""
"success","timeout","failed_images","failed_audio","failed_video","trial_type","trial_index","time_elapsed","internal_node_id","STUDY_ID","PROLIFIC_PID","SESSION_ID","rt","view_history","shapes","occluder","options","response","RT","confidence","confidence_RT"
"true","false","[]","[]","[]","preload","0","46","0.0-0.0","664d169a152835c08e3e5d2a","5ded5559033565416fe02a77","665075df1ca70b9a0f8ea8b4","","","","","","","","",""
"true","","","","","fullscreen","1","3928","0.0-1.0","664d169a152835c08e3e5d2a","5ded5559033565416fe02a77","665075df1ca70b9a0f8ea8b4","2863","","","","","","","",""
"","","","","","instructions","2","60563","0.0-2.0","664d169a152835c08e3e5d2a","5ded5559033565416fe02a77","665075df1ca70b9a0f8ea8b4","56633","[{""page_index"":0,""viewing_time"":2830},{""page_index"":1,""viewing_time"":31470},{""page_index"":2,""viewing_time"":15353},{""page_index"":3,""viewing_time"":3584},{""page_index"":4,""viewing_time"":3396}]","","","","","","",""
"","","","","","jsShapes","3","79690","0.0-3.0-0.0","664d169a152835c08e3e5d2a","5ded5559033565416fe02a77","665075df1ca70b9a0f8ea8b4","","","[2,2]","right","[3,1]","0","16822.600000023842","0.4688888888888889","2249.2000000476837"
"","","","","","jsShapes","4","98952","0.0-3.0-0.1","664d169a152835c08e3e5d2a","5ded5559033565416fe02a77","665075df1ca70b9a0f8ea8b4","","","[3,4]","left","[3,0]","0","17668.899999976158","0.6911111111111111","1575.5"
"","","","","","jsShapes","5","105252","0.0-3.0-0.2","664d169a152835c08e3e5d2a","5ded5559033565416fe02a77","665075df1ca70b9a0f8ea8b4","","","[0,1]","right","[0,1]","1","4737.099999904633","0.6533333333333333","1548.7000000476837"
"","","","","","jsShapes","6","116467","0.0-3.0-0.3","664d169a152835c08e3e5d2a","5ded5559033565416fe02a77","665075df1ca70b9a0f8ea8b4","","","[0,1]","left","[4,0]","1","9735.799999952316","0.6599999999999999","1472.8000000715256"
"","","","","","jsShapes","7","126215","0.0-3.0-0.4","664d169a152835c08e3e5d2a","5ded5559033565416fe02a77","665075df1ca70b9a0f8ea8b4","","","[0,1]","left","[1,0]","1","8226.100000023842","0.6799999999999999","1508.5"
"","","","","","jsShapes","8","131481","0.0-3.0-0.5","664d169a152835c08e3e5d2a","5ded5559033565416fe02a77","665075df1ca70b9a0f8ea8b4","","","[0,1]","right","[1,3]","0","3764.100000023842","0.6311111111111112","1494.5999999046326"
"","","","","","jsShapes","9","137815","0.0-3.0-0.6","664d169a152835c08e3e5d2a","5ded5559033565416fe02a77","665075df1ca70b9a0f8ea8b4","","","[1,0]","left","[0,4]","1","4993.100000023842","0.6777777777777778","1336.2000000476837"
"","","","","","jsShapes","10","154311","0.0-3.0-0.7","664d169a152835c08e3e5d2a","5ded5559033565416fe02a77","665075df1ca70b9a0f8ea8b4","","","[2,3]","right","[0,1]","0","14539.399999976158","0.3288888888888889","1937.7000000476837"
"","","","","","jsShapes","11","159028","0.0-3.0-0.8","664d169a152835c08e3e5d2a","5ded5559033565416fe02a77","665075df1ca70b9a0f8ea8b4","","","[0,1]","left","[0,3]","0","2959.600000023842","0.7022222222222223","1745.6000000238419"
"","","","","","jsShapes","12","167246","0.0-3.0-0.9","664d169a152835c08e3e5d2a","5ded5559033565416fe02a77","665075df1ca70b9a0f8ea8b4","","","[4,4]","left","[3,0]","0","6795.5","0.6955555555555555","1416.5999999046326"
"","","","","","jsShapes","13","171627","0.0-3.0-0.10","664d169a152835c08e3e5d2a","5ded5559033565416fe02a77","665075df1ca70b9a0f8ea8b4","","","[0,1]","right","[1,4]","0","2604.8000000715256","0.731111111111111","1769.5999999046326"
"","","","","","jsShapes","14","177178","0.0-3.0-0.11","664d169a152835c08e3e5d2a","5ded5559033565416fe02a77","665075df1ca70b9a0f8ea8b4","","","[1,3]","right","[2,1]","0","4326.099999904633","0.731111111111111","1218.3000000715256"
"","","","","","jsShapes","15","182758","0.0-3.0-0.12","664d169a152835c08e3e5d2a","5ded5559033565416fe02a77","665075df1ca70b9a0f8ea8b4","","","[3,2]","left","[0,2]","1","4505.400000095367","0.6177777777777778","1065.0999999046326"
"","","","","","jsShapes","16","187641","0.0-3.0-0.13","664d169a152835c08e3e5d2a","5ded5559033565416fe02a77","665075df1ca70b9a0f8ea8b4","","","[3,2]","right","[2,1]","0","3366.2000000476837","0.6466666666666667","1499.3999999761581"
"","","","","","jsShapes","17","192607","0.0-3.0-0.14","664d169a152835c08e3e5d2a","5ded5559033565416fe02a77","665075df1ca70b9a0f8ea8b4","","","[0,1]","left","[3,0]","1","3755.899999976158","0.5933333333333333","1193.2000000476837"
"","","","","","jsShapes","18","199206","0.0-3.0-0.15","664d169a152835c08e3e5d2a","5ded5559033565416fe02a77","665075df1ca70b9a0f8ea8b4","","","[0,1]","right","[1,3]","0","4998.200000047684","0.6311111111111112","1585.5"
"","","","","","survey-text","19","208121","0.0-4.0","664d169a152835c08e3e5d2a","5ded5559033565416fe02a77","665075df1ca70b9a0f8ea8b4","8905","","","","","{""worker_comments"":""nothing to add""}","","",""
"","","","","","instructions","20","212714","0.0-5.0","664d169a152835c08e3e5d2a","5ded5559033565416fe02a77","665075df1ca70b9a0f8ea8b4","4590","[{""page_index"":0,""viewing_time"":4589}]","","","","","","",""
"success","timeout","failed_images","failed_audio","failed_video","trial_type","trial_index","time_elapsed","internal_node_id","STUDY_ID","PROLIFIC_PID","SESSION_ID","rt","view_history","shapes","occluder","options","response","RT","confidence","confidence_RT"
"true","false","[]","[]","[]","preload","0","45","0.0-0.0","664d169a152835c08e3e5d2a","5980fff19bf4fe0001070984","664dfeabcda13c7b13b85392","","","","","","","","",""
"true","","","","","fullscreen","1","2440","0.0-1.0","664d169a152835c08e3e5d2a","5980fff19bf4fe0001070984","664dfeabcda13c7b13b85392","1378","","","","","","","",""
"","","","","","instructions","2","20104","0.0-2.0","664d169a152835c08e3e5d2a","5980fff19bf4fe0001070984","664dfeabcda13c7b13b85392","17663","[{""page_index"":0,""viewing_time"":2758},{""page_index"":1,""viewing_time"":6992},{""page_index"":2,""viewing_time"":5617},{""page_index"":3,""viewing_time"":1522},{""page_index"":4,""viewing_time"":774}]","","","","","","",""
"","","","","","jsShapes","3","34172","0.0-3.0-0.0","664d169a152835c08e3e5d2a","5980fff19bf4fe0001070984","664dfeabcda13c7b13b85392","","","[1,0]","left","[0,1]","0","11274.300000011921","0.15000000000000002","2776.099999964237"
"","","","","","jsShapes","4","42004","0.0-3.0-0.1","664d169a152835c08e3e5d2a","5980fff19bf4fe0001070984","664dfeabcda13c7b13b85392","","","[4,4]","right","[2,1]","0","6306","0.1444444444444445","1512.300000011921"
"","","","","","jsShapes","5","46787","0.0-3.0-0.2","664d169a152835c08e3e5d2a","5980fff19bf4fe0001070984","664dfeabcda13c7b13b85392","","","[0,1]","right","[1,0]","0","3594.199999988079","1","1167.300000011921"
"","","","","","jsShapes","6","52137","0.0-3.0-0.3","664d169a152835c08e3e5d2a","5980fff19bf4fe0001070984","664dfeabcda13c7b13b85392","","","[0,1]","left","[0,2]","0","4395.900000035763","0.2222222222222222","943.3999999761581"
"","","","","","jsShapes","7","57386","0.0-3.0-0.4","664d169a152835c08e3e5d2a","5980fff19bf4fe0001070984","664dfeabcda13c7b13b85392","","","[1,0]","left","[2,0]","0","3994.099999964237","0.22592592592592597","1250.800000011921"
"","","","","","jsShapes","8","65936","0.0-3.0-0.5","664d169a152835c08e3e5d2a","5980fff19bf4fe0001070984","664dfeabcda13c7b13b85392","","","[0,1]","left","[2,0]","0","7437.099999964237","0.26296296296296295","1111"
"","","","","","jsShapes","9","69936","0.0-3.0-0.6","664d169a152835c08e3e5d2a","5980fff19bf4fe0001070984","664dfeabcda13c7b13b85392","","","[2,2]","right","[4,1]","1","2879.900000035763","0.2240740740740741","1103.2999999523163"
"","","","","","jsShapes","10","73636","0.0-3.0-0.7","664d169a152835c08e3e5d2a","5980fff19bf4fe0001070984","664dfeabcda13c7b13b85392","","","[0,1]","right","[4,1]","1","2605.5","1","1056.7999999523163"
"","","","","","jsShapes","11","76920","0.0-3.0-0.8","664d169a152835c08e3e5d2a","5980fff19bf4fe0001070984","664dfeabcda13c7b13b85392","","","[2,0]","right","[1,0]","0","2131","0.061111111111111116","1121.3999999761581"
"","","","","","jsShapes","12","81986","0.0-3.0-0.9","664d169a152835c08e3e5d2a","5980fff19bf4fe0001070984","664dfeabcda13c7b13b85392","","","[0,1]","left","[0,1]","0","4007","0.9351851851851852","1039.3999999761581"
"","","","","","jsShapes","13","92035","0.0-3.0-0.10","664d169a152835c08e3e5d2a","5980fff19bf4fe0001070984","664dfeabcda13c7b13b85392","","","[4,2]","left","[0,1]","1","9140.5","0.08148148148148149","871.5"
"","","","","","jsShapes","14","96336","0.0-3.0-0.11","664d169a152835c08e3e5d2a","5980fff19bf4fe0001070984","664dfeabcda13c7b13b85392","","","[0,1]","right","[4,1]","1","3267.5","1","1015.4000000357628"
"","","","","","jsShapes","15","100819","0.0-3.0-0.12","664d169a152835c08e3e5d2a","5980fff19bf4fe0001070984","664dfeabcda13c7b13b85392","","","[3,3]","left","[3,0]","1","3342.900000035763","0.1703703703703704","1111.800000011921"
"","","","","","jsShapes","16","104919","0.0-3.0-0.13","664d169a152835c08e3e5d2a","5980fff19bf4fe0001070984","664dfeabcda13c7b13b85392","","","[0,1]","right","[0,1]","1","3099.699999988079","1","969.1000000238419"
"","","","","","jsShapes","17","109668","0.0-3.0-0.14","664d169a152835c08e3e5d2a","5980fff19bf4fe0001070984","664dfeabcda13c7b13b85392","","","[0,1]","left","[0,2]","0","3847.600000023842","1","896.6999999880791"
"","","","","","jsShapes","18","114836","0.0-3.0-0.15","664d169a152835c08e3e5d2a","5980fff19bf4fe0001070984","664dfeabcda13c7b13b85392","","","[4,3]","right","[4,1]","0","3652.100000023842","0.23518518518518516","1503.199999988079"
"","","","","","survey-text","19","116904","0.0-4.0","664d169a152835c08e3e5d2a","5980fff19bf4fe0001070984","664dfeabcda13c7b13b85392","2065","","","","","{""worker_comments"":""""}","","",""
"","","","","","instructions","20","119096","0.0-5.0","664d169a152835c08e3e5d2a","5980fff19bf4fe0001070984","664dfeabcda13c7b13b85392","2192","[{""page_index"":0,""viewing_time"":2192}]","","","","","","",""
"success","timeout","failed_images","failed_audio","failed_video","trial_type","trial_index","time_elapsed","internal_node_id","STUDY_ID","PROLIFIC_PID","SESSION_ID","rt","view_history","shapes","occluder","options","response","RT","confidence","confidence_RT"
"true","false","[]","[]","[]","preload","0","267","0.0-0.0","664d169a152835c08e3e5d2a","6054ce9cd4e5c96ab84e9113","664dff2b992733ef8ec17e03","","","","","","","","",""
"true","","","","","fullscreen","1","30361","0.0-1.0","664d169a152835c08e3e5d2a","6054ce9cd4e5c96ab84e9113","664dff2b992733ef8ec17e03","29078","","","","","","","",""
"","","","","","instructions","2","147852","0.0-2.0","664d169a152835c08e3e5d2a","6054ce9cd4e5c96ab84e9113","664dff2b992733ef8ec17e03","117490","[{""page_index"":0,""viewing_time"":10282},{""page_index"":1,""viewing_time"":84645},{""page_index"":2,""viewing_time"":16073},{""page_index"":3,""viewing_time"":3668},{""page_index"":4,""viewing_time"":2822}]","","","","","","",""
"","","","","","jsShapes","3","162918","0.0-3.0-0.0","664d169a152835c08e3e5d2a","6054ce9cd4e5c96ab84e9113","664dff2b992733ef8ec17e03","","","[1,2]","right","[1,3]","1","12157.599999997765","0.0078125","2874.2000000029802"
"","","","","","jsShapes","4","170758","0.0-3.0-0.1","664d169a152835c08e3e5d2a","6054ce9cd4e5c96ab84e9113","664dff2b992733ef8ec17e03","","","[0,1]","right","[4,1]","1","4076.5","1","3752.89999999851"
"","","","","","jsShapes","5","194069","0.0-3.0-0.2","664d169a152835c08e3e5d2a","6054ce9cd4e5c96ab84e9113","664dff2b992733ef8ec17e03","","","[4,0]","left","[0,3]","1","20355.5","0","2942.10000000149"
"","","","","","jsShapes","6","206175","0.0-3.0-0.3","664d169a152835c08e3e5d2a","6054ce9cd4e5c96ab84e9113","664dff2b992733ef8ec17e03","","","[0,1]","left","[2,0]","1","6895","1","5194.39999999851"
"","","","","","jsShapes","7","212950","0.0-3.0-0.4","664d169a152835c08e3e5d2a","6054ce9cd4e5c96ab84e9113","664dff2b992733ef8ec17e03","","","[0,1]","right","[4,1]","1","4646.800000000745","1","2113.89999999851"
"","","","","","jsShapes","8","217212","0.0-3.0-0.5","664d169a152835c08e3e5d2a","6054ce9cd4e5c96ab84e9113","664dff2b992733ef8ec17e03","","","[3,0]","left","[0,1]","1","2740.800000000745","0","1517.199999999255"
"","","","","","jsShapes","9","224539","0.0-3.0-0.6","664d169a152835c08e3e5d2a","6054ce9cd4e5c96ab84e9113","664dff2b992733ef8ec17e03","","","[0,1]","left","[0,1]","0","4670.89999999851","1","2643.400000002235"
"","","","","","jsShapes","10","234812","0.0-3.0-0.7","664d169a152835c08e3e5d2a","6054ce9cd4e5c96ab84e9113","664dff2b992733ef8ec17e03","","","[2,3]","right","[1,4]","0","7331.800000000745","1","2926.10000000149"
"","","","","","jsShapes","11","242837","0.0-3.0-0.8","664d169a152835c08e3e5d2a","6054ce9cd4e5c96ab84e9113","664dff2b992733ef8ec17e03","","","[0,1]","right","[0,1]","1","3114.39999999851","0","4891.60000000149"
"","","","","","jsShapes","12","251795","0.0-3.0-0.9","664d169a152835c08e3e5d2a","6054ce9cd4e5c96ab84e9113","664dff2b992733ef8ec17e03","","","[0,1]","left","[0,4]","0","2773.39999999851","0","6165.699999999255"
"","","","","","jsShapes","13","268828","0.0-3.0-0.10","664d169a152835c08e3e5d2a","6054ce9cd4e5c96ab84e9113","664dff2b992733ef8ec17e03","","","[2,0]","right","[4,1]","1","9645.199999999255","0.015625","7373.099999997765"
"","","","","","jsShapes","14","276504","0.0-3.0-0.11","664d169a152835c08e3e5d2a","6054ce9cd4e5c96ab84e9113","664dff2b992733ef8ec17e03","","","[2,3]","left","[3,0]","1","4430.39999999851","0.3046875","3231.699999999255"
"","","","","","jsShapes","15","283947","0.0-3.0-0.12","664d169a152835c08e3e5d2a","6054ce9cd4e5c96ab84e9113","664dff2b992733ef8ec17e03","","","[1,3]","right","[1,4]","1","5527.699999999255","0","1898.300000000745"
"","","","","","jsShapes","16","294404","0.0-3.0-0.13","664d169a152835c08e3e5d2a","6054ce9cd4e5c96ab84e9113","664dff2b992733ef8ec17e03","","","[3,3]","left","[1,0]","0","8174","0.1015625","2267.699999999255"
"","","","","","jsShapes","17","301265","0.0-3.0-0.14","664d169a152835c08e3e5d2a","6054ce9cd4e5c96ab84e9113","664dff2b992733ef8ec17e03","","","[0,1]","right","[1,2]","0","4618.20000000298","1","2237.199999999255"
"","","","","","jsShapes","18","305626","0.0-3.0-0.15","664d169a152835c08e3e5d2a","6054ce9cd4e5c96ab84e9113","664dff2b992733ef8ec17e03","","","[0,1]","left","[0,4]","0","2616.5","0.515625","1731"
"","","","","","survey-text","19","308515","0.0-4.0","664d169a152835c08e3e5d2a","6054ce9cd4e5c96ab84e9113","664dff2b992733ef8ec17e03","2857","","","","","{""worker_comments"":""""}","","",""
"","","","","","instructions","20","311421","0.0-5.0","664d169a152835c08e3e5d2a","6054ce9cd4e5c96ab84e9113","664dff2b992733ef8ec17e03","2904","[{""page_index"":0,""viewing_time"":2904}]","","","","","","",""
"success","timeout","failed_images","failed_audio","failed_video","trial_type","trial_index","time_elapsed","internal_node_id","STUDY_ID","PROLIFIC_PID","SESSION_ID","rt","view_history","shapes","occluder","options","response","RT","confidence","confidence_RT"
"true","false","[]","[]","[]","preload","0","168","0.0-0.0","664d169a152835c08e3e5d2a","6011c91e496f2f16d61402e7","664dffa5cf383523407059b4","","","","","","","","",""
"true","","","","","fullscreen","1","3270","0.0-1.0","664d169a152835c08e3e5d2a","6011c91e496f2f16d61402e7","664dffa5cf383523407059b4","2098","","","","","","","",""
"","","","","","instructions","2","123843","0.0-2.0","664d169a152835c08e3e5d2a","6011c91e496f2f16d61402e7","664dffa5cf383523407059b4","120571","[{""page_index"":0,""viewing_time"":5797},{""page_index"":1,""viewing_time"":102353},{""page_index"":2,""viewing_time"":8895},{""page_index"":3,""viewing_time"":2618},{""page_index"":4,""viewing_time"":906}]","","","","","","",""
"","","","","","jsShapes","3","138074","0.0-3.0-0.0","664d169a152835c08e3e5d2a","6011c91e496f2f16d61402e7","664dffa5cf383523407059b4","","","[0,1]","left","[2,0]","1","8498.200000047684","0.7888888888888889","5706.199999928474"
"","","","","","jsShapes","4","151285","0.0-3.0-0.1","664d169a152835c08e3e5d2a","6011c91e496f2f16d61402e7","664dffa5cf383523407059b4","","","[0,1]","right","[1,4]","1","11792.600000023842","1","1409"
"","","","","","jsShapes","5","165867","0.0-3.0-0.2","664d169a152835c08e3e5d2a","6011c91e496f2f16d61402e7","664dffa5cf383523407059b4","","","[3,3]","right","[2,1]","0","13196","1","1367.6999999284744"
"","","","","","jsShapes","6","176279","0.0-3.0-0.3","664d169a152835c08e3e5d2a","6011c91e496f2f16d61402e7","664dffa5cf383523407059b4","","","[4,4]","left","[0,2]","0","7933.100000023842","1","2463.5"
"","","","","","jsShapes","7","185444","0.0-3.0-0.4","664d169a152835c08e3e5d2a","6011c91e496f2f16d61402e7","664dffa5cf383523407059b4","","","[0,1]","left","[1,0]","1","8068.5","1","1078.6999999284744"
"","","","","","jsShapes","8","188428","0.0-3.0-0.5","664d169a152835c08e3e5d2a","6011c91e496f2f16d61402e7","664dffa5cf383523407059b4","","","[0,1]","right","[2,1]","1","2285.899999976158","1","673.8999999761581"
"","","","","","jsShapes","9","194223","0.0-3.0-0.6","664d169a152835c08e3e5d2a","6011c91e496f2f16d61402e7","664dffa5cf383523407059b4","","","[1,2]","left","[1,0]","0","4381","0.501058201058201","1405.0999999046326"
"","","","","","jsShapes","10","199157","0.0-3.0-0.7","664d169a152835c08e3e5d2a","6011c91e496f2f16d61402e7","664dffa5cf383523407059b4","","","[4,4]","right","[1,2]","0","4115.5","0.9772486772486773","802.3000000715256"
"","","","","","jsShapes","11","205384","0.0-3.0-0.8","664d169a152835c08e3e5d2a","6011c91e496f2f16d61402e7","664dffa5cf383523407059b4","","","[3,2]","left","[0,1]","0","5441.600000023842","0.501058201058201","775.3999999761581"
"","","","","","jsShapes","12","210247","0.0-3.0-0.9","664d169a152835c08e3e5d2a","6011c91e496f2f16d61402e7","664dffa5cf383523407059b4","","","[2,2]","right","[1,4]","0","4034.100000023842","0","809.8999999761581"
"","","","","","jsShapes","13","217986","0.0-3.0-0.10","664d169a152835c08e3e5d2a","6011c91e496f2f16d61402e7","664dffa5cf383523407059b4","","","[0,1]","left","[0,1]","0","6996.799999952316","1","721.8000000715256"
"","","","","","jsShapes","14","223298","0.0-3.0-0.11","664d169a152835c08e3e5d2a","6011c91e496f2f16d61402e7","664dffa5cf383523407059b4","","","[0,1]","right","[0,1]","1","4634","1","651.1000000238419"
"","","","","","jsShapes","15","225868","0.0-3.0-0.12","664d169a152835c08e3e5d2a","6011c91e496f2f16d61402e7","664dffa5cf383523407059b4","","","[0,1]","right","[3,1]","1","1931.8000000715256","1","622.5999999046326"
"","","","","","jsShapes","16","229689","0.0-3.0-0.13","664d169a152835c08e3e5d2a","6011c91e496f2f16d61402e7","664dffa5cf383523407059b4","","","[0,1]","left","[0,3]","0","2222.100000023842","0.5476190476190477","1580.6000000238419"
"","","","","","jsShapes","17","232431","0.0-3.0-0.14","664d169a152835c08e3e5d2a","6011c91e496f2f16d61402e7","664dffa5cf383523407059b4","","","[4,4]","left","[0,4]","0","2134.1999999284744","0.517989417989418","589.8000000715256"
"","","","","","jsShapes","18","234847","0.0-3.0-0.15","664d169a152835c08e3e5d2a","6011c91e496f2f16d61402e7","664dffa5cf383523407059b4","","","[4,4]","right","[1,2]","1","1770","0.517989417989418","628.0999999046326"
"","","","","","survey-text","19","238289","0.0-4.0","664d169a152835c08e3e5d2a","6011c91e496f2f16d61402e7","664dffa5cf383523407059b4","3434","","","","","{""worker_comments"":""None""}","","",""
"","","","","","instructions","20","267630","0.0-5.0","664d169a152835c08e3e5d2a","6011c91e496f2f16d61402e7","664dffa5cf383523407059b4","29339","[{""page_index"":0,""viewing_time"":29339}]","","","","","","",""
"success","timeout","failed_images","failed_audio","failed_video","trial_type","trial_index","time_elapsed","internal_node_id","STUDY_ID","PROLIFIC_PID","SESSION_ID","rt","view_history","shapes","occluder","options","response","RT","confidence","confidence_RT"
"true","false","[]","[]","[]","preload","0","61","0.0-0.0","664d169a152835c08e3e5d2a","5fbfda1b1d5ce13850c1912f","664dfffd27796c5b7f7818d0","","","","","","","","",""
"true","","","","","fullscreen","1","3918","0.0-1.0","664d169a152835c08e3e5d2a","5fbfda1b1d5ce13850c1912f","664dfffd27796c5b7f7818d0","2850","","","","","","","",""
"","","","","","instructions","2","412521","0.0-2.0","664d169a152835c08e3e5d2a","5fbfda1b1d5ce13850c1912f","664dfffd27796c5b7f7818d0","408599","[{""page_index"":0,""viewing_time"":4058},{""page_index"":1,""viewing_time"":93858},{""page_index"":2,""viewing_time"":306308},{""page_index"":3,""viewing_time"":2863},{""page_index"":4,""viewing_time"":1512}]","","","","","","",""
"","","","","","jsShapes","3","468808","0.0-3.0-0.0","664d169a152835c08e3e5d2a","5fbfda1b1d5ce13850c1912f","664dfffd27796c5b7f7818d0","","","[2,2]","right","[1,2]","1","52898","0.7890625","3366"
"","","","","","jsShapes","4","487646","0.0-3.0-0.1","664d169a152835c08e3e5d2a","5fbfda1b1d5ce13850c1912f","664dfffd27796c5b7f7818d0","","","[1,2]","left","[2,0]","0","16529","0.8723958333333334","2301"
"","","","","","jsShapes","5","498833","0.0-3.0-0.2","664d169a152835c08e3e5d2a","5fbfda1b1d5ce13850c1912f","664dfffd27796c5b7f7818d0","","","[0,1]","left","[3,0]","1","8247","0.8828125","2929"
"","","","","","jsShapes","6","508302","0.0-3.0-0.3","664d169a152835c08e3e5d2a","5fbfda1b1d5ce13850c1912f","664dfffd27796c5b7f7818d0","","","[0,1]","right","[1,4]","0","7890","0.9088541666666666","1566"
"","","","","","jsShapes","7","515054","0.0-3.0-0.4","664d169a152835c08e3e5d2a","5fbfda1b1d5ce13850c1912f","664dfffd27796c5b7f7818d0","","","[4,3]","right","[3,1]","0","5434","0.9713541666666666","1303"
"","","","","","jsShapes","8","522523","0.0-3.0-0.5","664d169a152835c08e3e5d2a","5fbfda1b1d5ce13850c1912f","664dfffd27796c5b7f7818d0","","","[3,2]","left","[1,0]","0","6012","0.9036458333333334","1448"
"","","","","","jsShapes","9","529492","0.0-3.0-0.6","664d169a152835c08e3e5d2a","5fbfda1b1d5ce13850c1912f","664dfffd27796c5b7f7818d0","","","[0,1]","right","[4,1]","1","5656","0.9036458333333334","1304"
"","","","","","jsShapes","10","541261","0.0-3.0-0.7","664d169a152835c08e3e5d2a","5fbfda1b1d5ce13850c1912f","664dfffd27796c5b7f7818d0","","","[0,1]","left","[4,0]","1","10003","0.8333333333333334","1755"
"","","","","","jsShapes","11","550248","0.0-3.0-0.8","664d169a152835c08e3e5d2a","5fbfda1b1d5ce13850c1912f","664dfffd27796c5b7f7818d0","","","[4,2]","left","[0,1]","1","7168","0.8723958333333334","1813"
"","","","","","jsShapes","12","559801","0.0-3.0-0.9","664d169a152835c08e3e5d2a","5fbfda1b1d5ce13850c1912f","664dfffd27796c5b7f7818d0","","","[0,1]","right","[1,4]","0","7873","0.8984375","1671"
"","","","","","jsShapes","13","570187","0.0-3.0-0.10","664d169a152835c08e3e5d2a","5fbfda1b1d5ce13850c1912f","664dfffd27796c5b7f7818d0","","","[1,3]","right","[1,3]","1","8588","0.9244791666666666","1789"
"","","","","","jsShapes","14","576689","0.0-3.0-0.11","664d169a152835c08e3e5d2a","5fbfda1b1d5ce13850c1912f","664dfffd27796c5b7f7818d0","","","[0,1]","left","[2,0]","1","4631","0.9166666666666666","1858"
"","","","","","jsShapes","15","582674","0.0-3.0-0.12","664d169a152835c08e3e5d2a","5fbfda1b1d5ce13850c1912f","664dfffd27796c5b7f7818d0","","","[0,1]","right","[3,1]","1","4288","0.9114583333333334","1684"
"","","","","","jsShapes","16","590326","0.0-3.0-0.13","664d169a152835c08e3e5d2a","5fbfda1b1d5ce13850c1912f","664dfffd27796c5b7f7818d0","","","[2,0]","left","[0,4]","1","5834","0.921875","1804"
"","","","","","jsShapes","17","597529","0.0-3.0-0.14","664d169a152835c08e3e5d2a","5fbfda1b1d5ce13850c1912f","664dfffd27796c5b7f7818d0","","","[0,1]","left","[4,0]","1","5817","0.9375","1371"
"","","","","","jsShapes","18","606448","0.0-3.0-0.15","664d169a152835c08e3e5d2a","5fbfda1b1d5ce13850c1912f","664dfffd27796c5b7f7818d0","","","[4,4]","right","[1,2]","1","7244","0.921875","1663"
"","","","","","survey-text","19","619902","0.0-4.0","664d169a152835c08e3e5d2a","5fbfda1b1d5ce13850c1912f","664dfffd27796c5b7f7818d0","13449","","","","","{""worker_comments"":""All ok. Thank you.""}","","",""
"","","","","","instructions","20","625486","0.0-5.0","664d169a152835c08e3e5d2a","5fbfda1b1d5ce13850c1912f","664dfffd27796c5b7f7818d0","5583","[{""page_index"":0,""viewing_time"":5582}]","","","","","","",""
"success","timeout","failed_images","failed_audio","failed_video","trial_type","trial_index","time_elapsed","internal_node_id","STUDY_ID","PROLIFIC_PID","SESSION_ID","rt","view_history","shapes","occluder","options","response","RT","confidence","confidence_RT"
"true","false","[]","[]","[]","preload","0","102","0.0-0.0","664d169a152835c08e3e5d2a","5fd000fb59f1540347d18088","664e002605dd20117b8a4803","","","","","","","","",""
"true","","","","","fullscreen","1","6914","0.0-1.0","664d169a152835c08e3e5d2a","5fd000fb59f1540347d18088","664e002605dd20117b8a4803","5807","","","","","","","",""
"","","","","","instructions","2","50756","0.0-2.0","664d169a152835c08e3e5d2a","5fd000fb59f1540347d18088","664e002605dd20117b8a4803","43840","[{""page_index"":0,""viewing_time"":9153},{""page_index"":1,""viewing_time"":20366},{""page_index"":2,""viewing_time"":10365},{""page_index"":3,""viewing_time"":2690},{""page_index"":4,""viewing_time"":1266}]","","","","","","",""
"","","","","","jsShapes","3","67564","0.0-3.0-0.0","664d169a152835c08e3e5d2a","5fd000fb59f1540347d18088","664e002605dd20117b8a4803","","","[3,4]","right","[2,1]","0","13129.199999988079","0","3644.899999976158"
"","","","","","jsShapes","4","76760","0.0-3.0-0.1","664d169a152835c08e3e5d2a","5fd000fb59f1540347d18088","664e002605dd20117b8a4803","","","[2,4]","left","[0,2]","0","7345.300000011921","0","1828.5"
"","","","","","jsShapes","5","84857","0.0-3.0-0.2","664d169a152835c08e3e5d2a","5fd000fb59f1540347d18088","664e002605dd20117b8a4803","","","[0,1]","right","[0,1]","1","6254.199999988079","1","1832"
"","","","","","jsShapes","6","90922","0.0-3.0-0.3","664d169a152835c08e3e5d2a","5fd000fb59f1540347d18088","664e002605dd20117b8a4803","","","[0,1]","left","[0,2]","0","4184.299999952316","1","1868.9000000357628"
"","","","","","jsShapes","7","95472","0.0-3.0-0.4","664d169a152835c08e3e5d2a","5fd000fb59f1540347d18088","664e002605dd20117b8a4803","","","[0,1]","left","[3,0]","1","2607.300000011921","1","1935.0999999642372"
"","","","","","jsShapes","8","102322","0.0-3.0-0.5","664d169a152835c08e3e5d2a","5fd000fb59f1540347d18088","664e002605dd20117b8a4803","","","[2,3]","left","[1,0]","0","4588.600000023842","0","2253.199999988079"
"","","","","","jsShapes","9","108569","0.0-3.0-0.6","664d169a152835c08e3e5d2a","5fd000fb59f1540347d18088","664e002605dd20117b8a4803","","","[0,1]","right","[0,1]","1","4312.199999988079","1","1917.199999988079"
"","","","","","jsShapes","10","113852","0.0-3.0-0.7","664d169a152835c08e3e5d2a","5fd000fb59f1540347d18088","664e002605dd20117b8a4803","","","[4,0]","right","[2,1]","0","3656.899999976158","1","1619"
"","","","","","jsShapes","11","120417","0.0-3.0-0.8","664d169a152835c08e3e5d2a","5fd000fb59f1540347d18088","664e002605dd20117b8a4803","","","[2,4]","right","[3,1]","0","4891","0","1655.699999988079"
"","","","","","jsShapes","12","128615","0.0-3.0-0.9","664d169a152835c08e3e5d2a","5fd000fb59f1540347d18088","664e002605dd20117b8a4803","","","[4,4]","left","[4,0]","0","5625.200000047684","0.7109375","2561"
"","","","","","jsShapes","13","133064","0.0-3.0-0.10","664d169a152835c08e3e5d2a","5fd000fb59f1540347d18088","664e002605dd20117b8a4803","","","[0,1]","right","[2,1]","1","2654.199999988079","1","1783.5"
"","","","","","jsShapes","14","137113","0.0-3.0-0.11","664d169a152835c08e3e5d2a","5fd000fb59f1540347d18088","664e002605dd20117b8a4803","","","[0,1]","left","[0,3]","0","2134.399999976158","1","1898.300000011921"
"","","","","","jsShapes","15","140747","0.0-3.0-0.12","664d169a152835c08e3e5d2a","5fd000fb59f1540347d18088","664e002605dd20117b8a4803","","","[0,1]","right","[0,1]","1","2327.699999988079","1","1289.699999988079"
"","","","","","jsShapes","16","153177","0.0-3.0-0.13","664d169a152835c08e3e5d2a","5fd000fb59f1540347d18088","664e002605dd20117b8a4803","","","[2,3]","right","[4,1]","1","9880.799999952316","0","2546.100000023842"
"","","","","","jsShapes","17","167474","0.0-3.0-0.14","664d169a152835c08e3e5d2a","5fd000fb59f1540347d18088","664e002605dd20117b8a4803","","","[2,3]","left","[0,3]","1","11534.099999964237","0.2890625","2744.400000035763"
"","","","","","jsShapes","18","171389","0.0-3.0-0.15","664d169a152835c08e3e5d2a","5fd000fb59f1540347d18088","664e002605dd20117b8a4803","","","[0,1]","left","[4,0]","1","2407","1","1497.699999988079"
"","","","","","survey-text","19","174563","0.0-4.0","664d169a152835c08e3e5d2a","5fd000fb59f1540347d18088","664e002605dd20117b8a4803","3151","","","","","{""worker_comments"":""""}","","",""
"","","","","","instructions","20","176508","0.0-5.0","664d169a152835c08e3e5d2a","5fd000fb59f1540347d18088","664e002605dd20117b8a4803","1942","[{""page_index"":0,""viewing_time"":1942}]","","","","","","",""
"success","timeout","failed_images","failed_audio","failed_video","trial_type","trial_index","time_elapsed","internal_node_id","STUDY_ID","PROLIFIC_PID","SESSION_ID","rt","view_history","shapes","occluder","options","response","RT","confidence","confidence_RT"
"true","false","[]","[]","[]","preload","0","286","0.0-0.0","664d169a152835c08e3e5d2a","5fb2808bf1937b872c6ad534","664e008676c3e97ebc7bc9ec","","","","","","","","",""
"true","","","","","fullscreen","1","3340","0.0-1.0","664d169a152835c08e3e5d2a","5fb2808bf1937b872c6ad534","664e008676c3e97ebc7bc9ec","2034","","","","","","","",""
"","","","","","instructions","2","109108","0.0-2.0","664d169a152835c08e3e5d2a","5fb2808bf1937b872c6ad534","664e008676c3e97ebc7bc9ec","105768","[{""page_index"":0,""viewing_time"":4303},{""page_index"":1,""viewing_time"":42721},{""page_index"":2,""viewing_time"":10864},{""page_index"":3,""viewing_time"":7920},{""page_index"":4,""viewing_time"":39960}]","","","","","","",""
"","","","","","jsShapes","3","119886","0.0-3.0-0.0","664d169a152835c08e3e5d2a","5fb2808bf1937b872c6ad534","664e008676c3e97ebc7bc9ec","","","[4,4]","left","[1,0]","0","8437.20000000298","0.2962962962962963","2320.2999999970198"
"","","","","","jsShapes","4","130567","0.0-3.0-0.1","664d169a152835c08e3e5d2a","5fb2808bf1937b872c6ad534","664e008676c3e97ebc7bc9ec","","","[0,1]","right","[1,2]","1","9347.300000000745","0","1319.7999999970198"
"","","","","","jsShapes","5","137048","0.0-3.0-0.2","664d169a152835c08e3e5d2a","5fb2808bf1937b872c6ad534","664e008676c3e97ebc7bc9ec","","","[0,1]","left","[4,0]","1","5051.5","0","1423.5999999977648"
"","","","","","jsShapes","6","142897","0.0-3.0-0.3","664d169a152835c08e3e5d2a","5fb2808bf1937b872c6ad534","664e008676c3e97ebc7bc9ec","","","[1,0]","right","[0,1]","0","4689.89999999851","0.7222222222222222","1151.300000000745"
"","","","","","jsShapes","7","162042","0.0-3.0-0.4","664d169a152835c08e3e5d2a","5fb2808bf1937b872c6ad534","664e008676c3e97ebc7bc9ec","","","[4,2]","left","[4,0]","0","18040.60000000149","0.6041666666666667","1080.199999999255"
"","","","","","jsShapes","8","169624","0.0-3.0-0.5","664d169a152835c08e3e5d2a","5fb2808bf1937b872c6ad534","664e008676c3e97ebc7bc9ec","","","[0,1]","left","[0,4]","0","6527.300000000745","0.5717592592592593","1048"
"","","","","","jsShapes","9","182471","0.0-3.0-0.6","664d169a152835c08e3e5d2a","5fb2808bf1937b872c6ad534","664e008676c3e97ebc7bc9ec","","","[0,1]","right","[2,1]","1","11706","0.787037037037037","1132.0999999977648"
"","","","","","jsShapes","10","187786","0.0-3.0-0.7","664d169a152835c08e3e5d2a","5fb2808bf1937b872c6ad534","664e008676c3e97ebc7bc9ec","","","[1,0]","right","[1,3]","1","4290.89999999851","0.6574074074074074","1019.8000000007451"
"","","","","","jsShapes","11","193968","0.0-3.0-0.8","664d169a152835c08e3e5d2a","5fb2808bf1937b872c6ad534","664e008676c3e97ebc7bc9ec","","","[3,0]","right","[4,1]","0","5022.89999999851","0.6296296296296297","1151.6000000014901"
"","","","","","jsShapes","12","198584","0.0-3.0-0.9","664d169a152835c08e3e5d2a","5fb2808bf1937b872c6ad534","664e008676c3e97ebc7bc9ec","","","[1,4]","left","[0,2]","1","3393.5","0.6273148148148149","1216.1000000014901"
"","","","","","jsShapes","13","202949","0.0-3.0-0.10","664d169a152835c08e3e5d2a","5fb2808bf1937b872c6ad534","664e008676c3e97ebc7bc9ec","","","[0,1]","right","[1,0]","0","2762.800000000745","0.8240740740740741","1599.800000000745"
"","","","","","jsShapes","14","207748","0.0-3.0-0.11","664d169a152835c08e3e5d2a","5fb2808bf1937b872c6ad534","664e008676c3e97ebc7bc9ec","","","[0,1]","left","[0,4]","0","3287.60000000149","0.6967592592592593","1499.6000000014901"
"","","","","","jsShapes","15","215130","0.0-3.0-0.12","664d169a152835c08e3e5d2a","5fb2808bf1937b872c6ad534","664e008676c3e97ebc7bc9ec","","","[2,2]","right","[1,0]","0","6399","0.5625","975.1999999992549"
"","","","","","jsShapes","16","221578","0.0-3.0-0.13","664d169a152835c08e3e5d2a","5fb2808bf1937b872c6ad534","664e008676c3e97ebc7bc9ec","","","[4,4]","left","[4,0]","1","5464.699999999255","0.5416666666666667","975.5"
"","","","","","jsShapes","17","236192","0.0-3.0-0.14","664d169a152835c08e3e5d2a","5fb2808bf1937b872c6ad534","664e008676c3e97ebc7bc9ec","","","[0,1]","left","[0,2]","0","10008.699999999255","0.6342592592592593","4596.5"
"","","","","","jsShapes","18","244873","0.0-3.0-0.15","664d169a152835c08e3e5d2a","5fb2808bf1937b872c6ad534","664e008676c3e97ebc7bc9ec","","","[0,1]","right","[1,0]","0","7521.70000000298","0.7777777777777778","1151.5999999977648"
"","","","","","survey-text","19","255317","0.0-4.0","664d169a152835c08e3e5d2a","5fb2808bf1937b872c6ad534","664e008676c3e97ebc7bc9ec","10435","","","","","{""worker_comments"":""na""}","","",""
"","","","","","instructions","20","285970","0.0-5.0","664d169a152835c08e3e5d2a","5fb2808bf1937b872c6ad534","664e008676c3e97ebc7bc9ec","30656","[{""page_index"":0,""viewing_time"":30655}]","","","","","","",""
"success","timeout","failed_images","failed_audio","failed_video","trial_type","trial_index","time_elapsed","internal_node_id","STUDY_ID","PROLIFIC_PID","SESSION_ID","rt","view_history","shapes","occluder","options","response","RT","confidence","confidence_RT"
"true","false","[]","[]","[]","preload","0","3254","0.0-0.0","664d169a152835c08e3e5d2a","63d5021468a31efc02740c1e","665077cade680828547fea5b","","","","","","","","",""
"true","","","","","fullscreen","1","6165","0.0-1.0","664d169a152835c08e3e5d2a","63d5021468a31efc02740c1e","665077cade680828547fea5b","1889","","","","","","","",""
"","","","","","instructions","2","75474","0.0-2.0","664d169a152835c08e3e5d2a","63d5021468a31efc02740c1e","665077cade680828547fea5b","69307","[{""page_index"":0,""viewing_time"":3317},{""page_index"":1,""viewing_time"":46297},{""page_index"":2,""viewing_time"":6105},{""page_index"":3,""viewing_time"":12842},{""page_index"":4,""viewing_time"":745}]","","","","","","",""
"","","","","","jsShapes","3","82446","0.0-3.0-0.0","664d169a152835c08e3e5d2a","63d5021468a31efc02740c1e","665077cade680828547fea5b","","","[0,1]","right","[1,0]","0","4941.799999952316","0.9222222222222223","2000.5"
"","","","","","jsShapes","4","88244","0.0-3.0-0.1","664d169a152835c08e3e5d2a","63d5021468a31efc02740c1e","665077cade680828547fea5b","","","[0,1]","left","[0,4]","1","4686.5","0.1851851569281684","1096.7000000476837"
"","","","","","jsShapes","5","94708","0.0-3.0-0.2","664d169a152835c08e3e5d2a","63d5021468a31efc02740c1e","665077cade680828547fea5b","","","[3,4]","left","[0,2]","1","5643.899999976158","0.20370364718967016","804.6000000238419"
"","","","","","jsShapes","6","99989","0.0-3.0-0.3","664d169a152835c08e3e5d2a","63d5021468a31efc02740c1e","665077cade680828547fea5b","","","[4,0]","right","[1,2]","1","4430.800000011921","1","840.8000000119209"
"","","","","","jsShapes","7","104804","0.0-3.0-0.4","664d169a152835c08e3e5d2a","63d5021468a31efc02740c1e","665077cade680828547fea5b","","","[0,1]","left","[0,4]","0","3805.399999976158","0.9481481340196397","1005.8999999761581"
"","","","","","jsShapes","8","122149","0.0-3.0-0.5","664d169a152835c08e3e5d2a","63d5021468a31efc02740c1e","665077cade680828547fea5b","","","[2,3]","right","[0,1]","0","16348","0.005555555555555536","985.5"
"","","","","","jsShapes","9","128746","0.0-3.0-0.6","664d169a152835c08e3e5d2a","63d5021468a31efc02740c1e","665077cade680828547fea5b","","","[0,1]","right","[3,1]","1","5198.600000023842","0.9537036895751954","1387"
"","","","","","jsShapes","10","131595","0.0-3.0-0.7","664d169a152835c08e3e5d2a","63d5021468a31efc02740c1e","665077cade680828547fea5b","","","[1,2]","left","[0,2]","0","1970.6000000238419","0.24259253607855902","864.8000000119209"
"","","","","","jsShapes","11","136842","0.0-3.0-0.8","664d169a152835c08e3e5d2a","63d5021468a31efc02740c1e","665077cade680828547fea5b","","","[0,1]","left","[2,0]","1","4172.300000011921","1","1071.300000011921"
"","","","","","jsShapes","12","142141","0.0-3.0-0.9","664d169a152835c08e3e5d2a","63d5021468a31efc02740c1e","665077cade680828547fea5b","","","[4,4]","right","[1,4]","0","3316.900000035763","0.9037036895751953","1975.5"
"","","","","","jsShapes","13","147739","0.0-3.0-0.10","664d169a152835c08e3e5d2a","63d5021468a31efc02740c1e","665077cade680828547fea5b","","","[3,4]","left","[0,1]","1","3771.5","0.18888888888888888","1812"
"","","","","","jsShapes","14","170514","0.0-3.0-0.11","664d169a152835c08e3e5d2a","63d5021468a31efc02740c1e","665077cade680828547fea5b","","","[0,1]","right","[3,1]","1","21664","0","1076.9000000357628"
"","","","","","jsShapes","15","176246","0.0-3.0-0.12","664d169a152835c08e3e5d2a","63d5021468a31efc02740c1e","665077cade680828547fea5b","","","[3,3]","right","[1,2]","1","4960.099999964237","0","766.9000000357628"
"","","","","","jsShapes","16","179145","0.0-3.0-0.13","664d169a152835c08e3e5d2a","63d5021468a31efc02740c1e","665077cade680828547fea5b","","","[0,1]","right","[4,1]","1","2102","0.6666666666666667","788.5999999642372"
"","","","","","jsShapes","17","182394","0.0-3.0-0.14","664d169a152835c08e3e5d2a","63d5021468a31efc02740c1e","665077cade680828547fea5b","","","[0,1]","left","[0,1]","0","2451.7000000476837","0.8592592451307508","794.2999999523163"
"","","","","","jsShapes","18","186892","0.0-3.0-0.15","664d169a152835c08e3e5d2a","63d5021468a31efc02740c1e","665077cade680828547fea5b","","","[4,4]","left","[3,0]","0","3288.300000011921","0.5425925360785591","1195.300000011921"
"","","","","","survey-text","19","189306","0.0-4.0","664d169a152835c08e3e5d2a","63d5021468a31efc02740c1e","665077cade680828547fea5b","2371","","","","","{""worker_comments"":""""}","","",""
"","","","","","instructions","20","191715","0.0-5.0","664d169a152835c08e3e5d2a","63d5021468a31efc02740c1e","665077cade680828547fea5b","2407","[{""page_index"":0,""viewing_time"":2407}]","","","","","","",""
"success","timeout","failed_images","failed_audio","failed_video","trial_type","trial_index","time_elapsed","internal_node_id","STUDY_ID","PROLIFIC_PID","SESSION_ID","rt","view_history","shapes","occluder","options","response","RT","confidence","confidence_RT"
"true","false","[]","[]","[]","preload","0","51","0.0-0.0","664d169a152835c08e3e5d2a","65bbd6f555ec4ced3d3c5988","664e040e65e666f7e99d1a22","","","","","","","","",""
"true","","","","","fullscreen","1","2297","0.0-1.0","664d169a152835c08e3e5d2a","65bbd6f555ec4ced3d3c5988","664e040e65e666f7e99d1a22","1237","","","","","","","",""
"","","","","","instructions","2","27152","0.0-2.0","664d169a152835c08e3e5d2a","65bbd6f555ec4ced3d3c5988","664e040e65e666f7e99d1a22","24855","[{""page_index"":0,""viewing_time"":2766},{""page_index"":1,""viewing_time"":13592},{""page_index"":2,""viewing_time"":5713},{""page_index"":3,""viewing_time"":1596},{""page_index"":4,""viewing_time"":1189}]","","","","","","",""
"","","","","","jsShapes","3","45656","0.0-3.0-0.0","664d169a152835c08e3e5d2a","65bbd6f555ec4ced3d3c5988","664e040e65e666f7e99d1a22","","","[4,2]","right","[1,0]","1","16247.599999904633","0.6111111111111112","2249.100000023842"
"","","","","","jsShapes","4","52301","0.0-3.0-0.1","664d169a152835c08e3e5d2a","65bbd6f555ec4ced3d3c5988","664e040e65e666f7e99d1a22","","","[0,1]","right","[1,4]","0","4974.100000023842","1","1663.2999999523163"
"","","","","","jsShapes","5","57031","0.0-3.0-0.2","664d169a152835c08e3e5d2a","65bbd6f555ec4ced3d3c5988","664e040e65e666f7e99d1a22","","","[0,1]","left","[1,0]","1","2716.1999999284744","0.9907407407407407","2011.1000000238419"
"","","","","","jsShapes","6","61885","0.0-3.0-0.3","664d169a152835c08e3e5d2a","65bbd6f555ec4ced3d3c5988","664e040e65e666f7e99d1a22","","","[1,0]","left","[4,0]","0","3745","0.5601851851851851","1099.5"
"","","","","","jsShapes","7","67065","0.0-3.0-0.4","664d169a152835c08e3e5d2a","65bbd6f555ec4ced3d3c5988","664e040e65e666f7e99d1a22","","","[0,1]","left","[0,3]","0","3831","0.9814814814814815","1338.6000000238419"
"","","","","","jsShapes","8","70864","0.0-3.0-0.5","664d169a152835c08e3e5d2a","65bbd6f555ec4ced3d3c5988","664e040e65e666f7e99d1a22","","","[0,1]","right","[1,4]","0","2515","0.9074074074074074","1275.7999999523163"
"","","","","","jsShapes","9","82266","0.0-3.0-0.6","664d169a152835c08e3e5d2a","65bbd6f555ec4ced3d3c5988","664e040e65e666f7e99d1a22","","","[1,0]","left","[1,0]","0","9440.399999976158","0.9282407407407407","1939.5"
"","","","","","jsShapes","10","87995","0.0-3.0-0.7","664d169a152835c08e3e5d2a","65bbd6f555ec4ced3d3c5988","664e040e65e666f7e99d1a22","","","[3,3]","right","[1,0]","1","4504.5","0.8263888888888888","1218.8999999761581"
"","","","","","jsShapes","11","92203","0.0-3.0-0.8","664d169a152835c08e3e5d2a","65bbd6f555ec4ced3d3c5988","664e040e65e666f7e99d1a22","","","[0,1]","left","[4,0]","1","2267.399999976158","0.9930555555555556","1923.6000000238419"
"","","","","","jsShapes","12","97411","0.0-3.0-0.9","664d169a152835c08e3e5d2a","65bbd6f555ec4ced3d3c5988","664e040e65e666f7e99d1a22","","","[2,0]","right","[1,3]","1","3722.7000000476837","0.5717592592592593","1481.6999999284744"
"","","","","","jsShapes","13","101057","0.0-3.0-0.10","664d169a152835c08e3e5d2a","65bbd6f555ec4ced3d3c5988","664e040e65e666f7e99d1a22","","","[0,1]","right","[0,1]","1","2125.2999999523163","0.8333333333333334","1513"
"","","","","","jsShapes","14","107209","0.0-3.0-0.11","664d169a152835c08e3e5d2a","65bbd6f555ec4ced3d3c5988","664e040e65e666f7e99d1a22","","","[2,3]","left","[0,1]","1","4815.699999928474","0.9236111111111112","1332.8000000715256"
"","","","","","jsShapes","15","110459","0.0-3.0-0.12","664d169a152835c08e3e5d2a","65bbd6f555ec4ced3d3c5988","664e040e65e666f7e99d1a22","","","[0,1]","left","[0,4]","0","2066.399999976158","1","1169.5"
"","","","","","jsShapes","16","114057","0.0-3.0-0.13","664d169a152835c08e3e5d2a","65bbd6f555ec4ced3d3c5988","664e040e65e666f7e99d1a22","","","[0,1]","right","[4,1]","1","2229.399999976158","0.9768518518518519","1361.7999999523163"
"","","","","","jsShapes","17","118446","0.0-3.0-0.14","664d169a152835c08e3e5d2a","65bbd6f555ec4ced3d3c5988","664e040e65e666f7e99d1a22","","","[3,3]","right","[1,4]","1","3033.100000023842","0.6944444444444444","1336.5"
"","","","","","jsShapes","18","123202","0.0-3.0-0.15","664d169a152835c08e3e5d2a","65bbd6f555ec4ced3d3c5988","664e040e65e666f7e99d1a22","","","[2,0]","left","[3,0]","0","3484.5999999046326","0.775462962962963","1267.1000000238419"
"","","","","","survey-text","19","125318","0.0-4.0","664d169a152835c08e3e5d2a","65bbd6f555ec4ced3d3c5988","664e040e65e666f7e99d1a22","2113","","","","","{""worker_comments"":""""}","","",""
"","","","","","instructions","20","128665","0.0-5.0","664d169a152835c08e3e5d2a","65bbd6f555ec4ced3d3c5988","664e040e65e666f7e99d1a22","3346","[{""page_index"":0,""viewing_time"":3346}]","","","","","","",""
"success","timeout","failed_images","failed_audio","failed_video","trial_type","trial_index","time_elapsed","internal_node_id","STUDY_ID","PROLIFIC_PID","SESSION_ID","rt","view_history","shapes","occluder","options","response","RT","confidence","confidence_RT"
"true","false","[]","[]","[]","preload","0","57","0.0-0.0","664d169a152835c08e3e5d2a","5f58c43de85564044e06775f","664e065e7cceaea74820b02b","","","","","","","","",""
"true","","","","","fullscreen","1","4693","0.0-1.0","664d169a152835c08e3e5d2a","5f58c43de85564044e06775f","664e065e7cceaea74820b02b","3623","","","","","","","",""
"","","","","","instructions","2","34481","0.0-2.0","664d169a152835c08e3e5d2a","5f58c43de85564044e06775f","664e065e7cceaea74820b02b","29787","[{""page_index"":0,""viewing_time"":3265},{""page_index"":1,""viewing_time"":14649},{""page_index"":2,""viewing_time"":8343},{""page_index"":3,""viewing_time"":2570},{""page_index"":4,""viewing_time"":959}]","","","","","","",""
"","","","","","jsShapes","3","44950","0.0-3.0-0.0","664d169a152835c08e3e5d2a","5f58c43de85564044e06775f","664e065e7cceaea74820b02b","","","[3,2]","right","[3,1]","0","7069.199999988079","0.22750000000000004","3380.5"
"","","","","","jsShapes","4","61917","0.0-3.0-0.1","664d169a152835c08e3e5d2a","5f58c43de85564044e06775f","664e065e7cceaea74820b02b","","","[0,1]","left","[0,3]","0","14896.700000017881","0.96","2054.0999999940395"
"","","","","","jsShapes","5","81683","0.0-3.0-0.2","664d169a152835c08e3e5d2a","5f58c43de85564044e06775f","664e065e7cceaea74820b02b","","","[2,4]","left","[1,0]","0","17756","0.31999999999999995","1995.2999999821186"
"","","","","","jsShapes","6","88850","0.0-3.0-0.3","664d169a152835c08e3e5d2a","5f58c43de85564044e06775f","664e065e7cceaea74820b02b","","","[0,1]","right","[1,0]","0","5472","0.99","1680.5"
"","","","","","jsShapes","7","96349","0.0-3.0-0.4","664d169a152835c08e3e5d2a","5f58c43de85564044e06775f","664e065e7cceaea74820b02b","","","[0,1]","right","[1,4]","0","5770","0.9725","1716.7999999821186"
"","","","","","jsShapes","8","107132","0.0-3.0-0.5","664d169a152835c08e3e5d2a","5f58c43de85564044e06775f","664e065e7cceaea74820b02b","","","[3,3]","left","[0,4]","1","9122.5","0.14749999999999996","1643.9000000059605"
"","","","","","jsShapes","9","113999","0.0-3.0-0.6","664d169a152835c08e3e5d2a","5f58c43de85564044e06775f","664e065e7cceaea74820b02b","","","[0,1]","left","[0,3]","0","5136.800000011921","0.845","1723.0999999940395"
"","","","","","jsShapes","10","120965","0.0-3.0-0.7","664d169a152835c08e3e5d2a","5f58c43de85564044e06775f","664e065e7cceaea74820b02b","","","[1,0]","right","[4,1]","0","5000.699999988079","0.08750000000000002","1954.2000000178814"
"","","","","","jsShapes","11","134615","0.0-3.0-0.8","664d169a152835c08e3e5d2a","5f58c43de85564044e06775f","664e065e7cceaea74820b02b","","","[2,3]","right","[1,2]","1","11882","0.37749999999999995","1766.5999999940395"
"","","","","","jsShapes","12","143416","0.0-3.0-0.9","664d169a152835c08e3e5d2a","5f58c43de85564044e06775f","664e065e7cceaea74820b02b","","","[1,0]","left","[0,4]","1","7345.800000011921","0.20999999999999996","1437.5"
"","","","","","jsShapes","13","151965","0.0-3.0-0.10","664d169a152835c08e3e5d2a","5f58c43de85564044e06775f","664e065e7cceaea74820b02b","","","[0,1]","left","[1,0]","1","7032.199999988079","0.92","1501.0999999940395"
"","","","","","jsShapes","14","159617","0.0-3.0-0.11","664d169a152835c08e3e5d2a","5f58c43de85564044e06775f","664e065e7cceaea74820b02b","","","[0,1]","right","[2,1]","1","5969.399999976158","0.7375","1664"
"","","","","","jsShapes","15","165731","0.0-3.0-0.12","664d169a152835c08e3e5d2a","5f58c43de85564044e06775f","664e065e7cceaea74820b02b","","","[3,2]","left","[0,2]","1","4946.200000017881","0.14","1153.3999999761581"
"","","","","","jsShapes","16","170947","0.0-3.0-0.13","664d169a152835c08e3e5d2a","5f58c43de85564044e06775f","664e065e7cceaea74820b02b","","","[0,1]","left","[1,0]","1","3989.2999999821186","0.9225","1219.6000000238419"
"","","","","","jsShapes","17","176814","0.0-3.0-0.14","664d169a152835c08e3e5d2a","5f58c43de85564044e06775f","664e065e7cceaea74820b02b","","","[0,1]","right","[1,2]","0","4604.800000011921","0.8225","1248.7999999821186"
"","","","","","jsShapes","18","183847","0.0-3.0-0.15","664d169a152835c08e3e5d2a","5f58c43de85564044e06775f","664e065e7cceaea74820b02b","","","[4,4]","right","[1,3]","1","5570.800000011921","0.29500000000000004","1457.7999999821186"
"","","","","","survey-text","19","190550","0.0-4.0","664d169a152835c08e3e5d2a","5f58c43de85564044e06775f","664e065e7cceaea74820b02b","6696","","","","","{""worker_comments"":""None""}","","",""
"","","","","","instructions","20","194475","0.0-5.0","664d169a152835c08e3e5d2a","5f58c43de85564044e06775f","664e065e7cceaea74820b02b","3924","[{""page_index"":0,""viewing_time"":3923}]","","","","","","",""
"success","timeout","failed_images","failed_audio","failed_video","trial_type","trial_index","time_elapsed","internal_node_id","STUDY_ID","PROLIFIC_PID","SESSION_ID","rt","view_history","shapes","occluder","options","response","RT","confidence","confidence_RT"
"true","false","[]","[]","[]","preload","0","181","0.0-0.0","664d169a152835c08e3e5d2a","602d2adcef81ce6b843da09b","664e086907270147762f32c2","","","","","","","","",""
"true","","","","","fullscreen","1","12986","0.0-1.0","664d169a152835c08e3e5d2a","602d2adcef81ce6b843da09b","664e086907270147762f32c2","11798","","","","","","","",""
"","","","","","instructions","2","59864","0.0-2.0","664d169a152835c08e3e5d2a","602d2adcef81ce6b843da09b","664e086907270147762f32c2","46878","[{""page_index"":0,""viewing_time"":11326},{""page_index"":1,""viewing_time"":15977},{""page_index"":2,""viewing_time"":5983},{""page_index"":1,""viewing_time"":10573},{""page_index"":2,""viewing_time"":668},{""page_index"":3,""viewing_time"":1801},{""page_index"":4,""viewing_time"":549}]","","","","","","",""
"","","","","","jsShapes","3","80945","0.0-3.0-0.0","664d169a152835c08e3e5d2a","602d2adcef81ce6b843da09b","664e086907270147762f32c2","","","[3,2]","right","[1,0]","1","16207.600000000559","0.7037037037037037","4858.0999999996275"
"","","","","","jsShapes","4","90608","0.0-3.0-0.1","664d169a152835c08e3e5d2a","602d2adcef81ce6b843da09b","664e086907270147762f32c2","","","[0,1]","left","[0,4]","0","5735.700000000186","0.900462962962963","3912.2000000001863"
"","","","","","jsShapes","5","96691","0.0-3.0-0.2","664d169a152835c08e3e5d2a","602d2adcef81ce6b843da09b","664e086907270147762f32c2","","","[0,1]","right","[3,1]","1","4030","1","2035.6000000005588"
"","","","","","jsShapes","6","102996","0.0-3.0-0.3","664d169a152835c08e3e5d2a","602d2adcef81ce6b843da09b","664e086907270147762f32c2","","","[3,0]","left","[4,0]","0","4006.800000000745","0.17592592592592593","2289"
"","","","","","jsShapes","7","108453","0.0-3.0-0.4","664d169a152835c08e3e5d2a","602d2adcef81ce6b843da09b","664e086907270147762f32c2","","","[4,4]","right","[1,2]","1","3619.9000000003725","0.15740740740740744","1833.0999999996275"
"","","","","","jsShapes","8","113737","0.0-3.0-0.5","664d169a152835c08e3e5d2a","602d2adcef81ce6b843da09b","664e086907270147762f32c2","","","[0,1]","left","[0,1]","0","3673.399999999441","0.6967592592592593","1597.2000000001863"
"","","","","","jsShapes","9","117435","0.0-3.0-0.6","664d169a152835c08e3e5d2a","602d2adcef81ce6b843da09b","664e086907270147762f32c2","","","[0,1]","right","[4,1]","1","1977.8999999994412","0.8981481481481481","1711.7000000001863"
"","","","","","jsShapes","10","121120","0.0-3.0-0.7","664d169a152835c08e3e5d2a","602d2adcef81ce6b843da09b","664e086907270147762f32c2","","","[4,3]","left","[3,0]","1","2521.4000000003725","0.01157407407407407","1150.5999999996275"
"","","","","","jsShapes","11","125068","0.0-3.0-0.8","664d169a152835c08e3e5d2a","602d2adcef81ce6b843da09b","664e086907270147762f32c2","","","[0,1]","left","[0,3]","0","2541","0.8981481481481481","1386.5999999996275"
"","","","","","jsShapes","12","129065","0.0-3.0-0.9","664d169a152835c08e3e5d2a","602d2adcef81ce6b843da09b","664e086907270147762f32c2","","","[4,4]","right","[1,3]","1","2559.7000000001863","0.09027777777777779","1433.8999999994412"
"","","","","","jsShapes","13","133674","0.0-3.0-0.10","664d169a152835c08e3e5d2a","602d2adcef81ce6b843da09b","664e086907270147762f32c2","","","[0,1]","right","[1,0]","1","3090.5","0","1507.2000000001863"
"","","","","","jsShapes","14","137581","0.0-3.0-0.11","664d169a152835c08e3e5d2a","602d2adcef81ce6b843da09b","664e086907270147762f32c2","","","[3,4]","left","[1,0]","1","2377.2999999998137","0","1528.2999999998137"
"","","","","","jsShapes","15","141078","0.0-3.0-0.12","664d169a152835c08e3e5d2a","602d2adcef81ce6b843da09b","664e086907270147762f32c2","","","[0,1]","left","[2,0]","1","2014.4000000003725","0.6550925925925926","1473.5"
"","","","","","jsShapes","16","146028","0.0-3.0-0.13","664d169a152835c08e3e5d2a","602d2adcef81ce6b843da09b","664e086907270147762f32c2","","","[3,2]","left","[0,1]","1","2943.7999999998137","0.15740740740740744","2002.2000000001863"
"","","","","","jsShapes","17","150894","0.0-3.0-0.14","664d169a152835c08e3e5d2a","602d2adcef81ce6b843da09b","664e086907270147762f32c2","","","[0,1]","right","[4,1]","1","2169.899999999441","1","2675.5"
"","","","","","jsShapes","18","156574","0.0-3.0-0.15","664d169a152835c08e3e5d2a","602d2adcef81ce6b843da09b","664e086907270147762f32c2","","","[2,2]","right","[1,2]","0","3936.0999999996275","0.5208333333333333","1740.4000000003725"
"","","","","","survey-text","19","158689","0.0-4.0","664d169a152835c08e3e5d2a","602d2adcef81ce6b843da09b","664e086907270147762f32c2","2112","","","","","{""worker_comments"":""""}","","",""
"","","","","","instructions","20","160628","0.0-5.0","664d169a152835c08e3e5d2a","602d2adcef81ce6b843da09b","664e086907270147762f32c2","1938","[{""page_index"":0,""viewing_time"":1938}]","","","","","","",""
"success","timeout","failed_images","failed_audio","failed_video","trial_type","trial_index","time_elapsed","internal_node_id","STUDY_ID","PROLIFIC_PID","SESSION_ID","rt","view_history","shapes","occluder","options","response","RT","confidence","confidence_RT"
"true","false","[]","[]","[]","preload","0","227","0.0-0.0","664d169a152835c08e3e5d2a","5fd8a0646c16732304844f31","664e092fc3c57051e214038c","","","","","","","","",""
"true","","","","","fullscreen","1","3082","0.0-1.0","664d169a152835c08e3e5d2a","5fd8a0646c16732304844f31","664e092fc3c57051e214038c","1843","","","","","","","",""
"","","","","","instructions","2","76214","0.0-2.0","664d169a152835c08e3e5d2a","5fd8a0646c16732304844f31","664e092fc3c57051e214038c","73130","[{""page_index"":0,""viewing_time"":3574},{""page_index"":1,""viewing_time"":28171},{""page_index"":2,""viewing_time"":28590},{""page_index"":1,""viewing_time"":6141},{""page_index"":2,""viewing_time"":464},{""page_index"":3,""viewing_time"":4938},{""page_index"":4,""viewing_time"":1251}]","","","","","","",""
"","","","","","jsShapes","3","89216","0.0-3.0-0.0","664d169a152835c08e3e5d2a","5fd8a0646c16732304844f31","664e092fc3c57051e214038c","","","[4,4]","right","[3,1]","0","9860.199999988079","1","3094.5"
"","","","","","jsShapes","4","97149","0.0-3.0-0.1","664d169a152835c08e3e5d2a","5fd8a0646c16732304844f31","664e092fc3c57051e214038c","","","[0,1]","right","[3,1]","1","6531.599999964237","1","1378.4000000357628"
"","","","","","jsShapes","5","105183","0.0-3.0-0.2","664d169a152835c08e3e5d2a","5fd8a0646c16732304844f31","664e092fc3c57051e214038c","","","[0,1]","left","[4,0]","0","5364","0.51875","2640"
"","","","","","jsShapes","6","110149","0.0-3.0-0.3","664d169a152835c08e3e5d2a","5fd8a0646c16732304844f31","664e092fc3c57051e214038c","","","[1,4]","left","[3,0]","0","3673","0.9416666666666667","1274.800000011921"
"","","","","","jsShapes","7","120417","0.0-3.0-0.4","664d169a152835c08e3e5d2a","5fd8a0646c16732304844f31","664e092fc3c57051e214038c","","","[4,0]","left","[0,4]","1","8969.600000023842","0.9666666666666667","1273"
"","","","","","jsShapes","8","125332","0.0-3.0-0.5","664d169a152835c08e3e5d2a","5fd8a0646c16732304844f31","664e092fc3c57051e214038c","","","[0,1]","left","[3,0]","1","3795.199999988079","1","1098"
"","","","","","jsShapes","9","128999","0.0-3.0-0.6","664d169a152835c08e3e5d2a","5fd8a0646c16732304844f31","664e092fc3c57051e214038c","","","[0,1]","right","[1,4]","0","2635.800000011921","0.9979166666666667","1001.8999999761581"
"","","","","","jsShapes","10","138215","0.0-3.0-0.7","664d169a152835c08e3e5d2a","5fd8a0646c16732304844f31","664e092fc3c57051e214038c","","","[3,0]","right","[3,1]","0","7344.400000035763","0.9979166666666667","1842.699999988079"
"","","","","","jsShapes","11","145166","0.0-3.0-0.8","664d169a152835c08e3e5d2a","5fd8a0646c16732304844f31","664e092fc3c57051e214038c","","","[3,0]","right","[1,0]","1","5244.899999976158","0.9979166666666667","1689.8999999761581"
"","","","","","jsShapes","12","150848","0.0-3.0-0.9","664d169a152835c08e3e5d2a","5fd8a0646c16732304844f31","664e092fc3c57051e214038c","","","[0,1]","right","[1,2]","0","4690.600000023842","0.9979166666666667","966.6999999880791"
"","","","","","jsShapes","13","154831","0.0-3.0-0.10","664d169a152835c08e3e5d2a","5fd8a0646c16732304844f31","664e092fc3c57051e214038c","","","[0,1]","left","[0,1]","0","2931.699999988079","0.9979166666666667","1033.699999988079"
"","","","","","jsShapes","14","158798","0.0-3.0-0.11","664d169a152835c08e3e5d2a","5fd8a0646c16732304844f31","664e092fc3c57051e214038c","","","[3,4]","left","[1,0]","1","3262.900000035763","1","691.5"
"","","","","","jsShapes","15","164514","0.0-3.0-0.12","664d169a152835c08e3e5d2a","5fd8a0646c16732304844f31","664e092fc3c57051e214038c","","","[2,4]","right","[1,2]","1","4904.800000011921","1","798.2999999523163"
"","","","","","jsShapes","16","168231","0.0-3.0-0.13","664d169a152835c08e3e5d2a","5fd8a0646c16732304844f31","664e092fc3c57051e214038c","","","[0,1]","right","[1,3]","0","2754.699999988079","1","930.9000000357628"
"","","","","","jsShapes","17","172164","0.0-3.0-0.14","664d169a152835c08e3e5d2a","5fd8a0646c16732304844f31","664e092fc3c57051e214038c","","","[0,1]","left","[0,1]","0","3197.5","1","718.6999999880791"
"","","","","","jsShapes","18","178164","0.0-3.0-0.15","664d169a152835c08e3e5d2a","5fd8a0646c16732304844f31","664e092fc3c57051e214038c","","","[1,3]","left","[2,0]","0","5117.399999976158","1","866.8000000119209"
"","","","","","survey-text","19","180379","0.0-4.0","664d169a152835c08e3e5d2a","5fd8a0646c16732304844f31","664e092fc3c57051e214038c","2210","","","","","{""worker_comments"":""""}","","",""
"","","","","","instructions","20","182318","0.0-5.0","664d169a152835c08e3e5d2a","5fd8a0646c16732304844f31","664e092fc3c57051e214038c","1938","[{""page_index"":0,""viewing_time"":1938}]","","","","","","",""
"success","timeout","failed_images","failed_audio","failed_video","trial_type","trial_index","time_elapsed","internal_node_id","STUDY_ID","PROLIFIC_PID","SESSION_ID","rt","view_history","shapes","occluder","options","response","RT","confidence","confidence_RT"
"true","false","[]","[]","[]","preload","0","125","0.0-0.0","664d169a152835c08e3e5d2a","5f58579578b8a03bd512b9e6","664e0f7db604c956289ca547","","","","","","","","",""
"true","","","","","fullscreen","1","3264","0.0-1.0","664d169a152835c08e3e5d2a","5f58579578b8a03bd512b9e6","664e0f7db604c956289ca547","2129","","","","","","","",""
"","","","","","instructions","2","50643","0.0-2.0","664d169a152835c08e3e5d2a","5f58579578b8a03bd512b9e6","664e0f7db604c956289ca547","47365","[{""page_index"":0,""viewing_time"":3554},{""page_index"":1,""viewing_time"":27984},{""page_index"":2,""viewing_time"":8728},{""page_index"":3,""viewing_time"":2874},{""page_index"":4,""viewing_time"":4224}]","","","","","","",""
"","","","","","jsShapes","3","57644","0.0-3.0-0.0","664d169a152835c08e3e5d2a","5f58579578b8a03bd512b9e6","664e0f7db604c956289ca547","","","[2,2]","left","[0,2]","0","4061","0.09722222222222221","2905"
"","","","","","jsShapes","4","65538","0.0-3.0-0.1","664d169a152835c08e3e5d2a","5f58579578b8a03bd512b9e6","664e0f7db604c956289ca547","","","[0,1]","right","[1,3]","0","6236.5999999996275","0.9652777777777778","1637"
"","","","","","jsShapes","5","71072","0.0-3.0-0.2","664d169a152835c08e3e5d2a","5f58579578b8a03bd512b9e6","664e0f7db604c956289ca547","","","[1,4]","right","[1,3]","0","3952","0.01388888888888884","1565.6000000005588"
"","","","","","jsShapes","6","75384","0.0-3.0-0.3","664d169a152835c08e3e5d2a","5f58579578b8a03bd512b9e6","664e0f7db604c956289ca547","","","[0,1]","left","[3,0]","1","2576.2999999998137","1","1717.1000000005588"
"","","","","","jsShapes","7","80053","0.0-3.0-0.4","664d169a152835c08e3e5d2a","5f58579578b8a03bd512b9e6","664e0f7db604c956289ca547","","","[3,2]","left","[3,0]","1","3104.7999999998137","0.08796296296296291","1551.1000000005588"
"","","","","","jsShapes","8","85102","0.0-3.0-0.5","664d169a152835c08e3e5d2a","5f58579578b8a03bd512b9e6","664e0f7db604c956289ca547","","","[4,4]","right","[4,1]","1","3528.7999999998137","0.0023148148148147696","1504.5"
"","","","","","jsShapes","9","89731","0.0-3.0-0.6","664d169a152835c08e3e5d2a","5f58579578b8a03bd512b9e6","664e0f7db604c956289ca547","","","[0,1]","right","[3,1]","1","3630.7000000001863","1","983.7000000001863"
"","","","","","jsShapes","10","94309","0.0-3.0-0.7","664d169a152835c08e3e5d2a","5f58579578b8a03bd512b9e6","664e0f7db604c956289ca547","","","[0,1]","left","[4,0]","1","3485.2999999998137","1","1075.0999999996275"
"","","","","","jsShapes","11","98257","0.0-3.0-0.8","664d169a152835c08e3e5d2a","5f58579578b8a03bd512b9e6","664e0f7db604c956289ca547","","","[0,1]","right","[3,1]","1","2775.7000000001863","1","1155.7000000001863"
"","","","","","jsShapes","12","103169","0.0-3.0-0.9","664d169a152835c08e3e5d2a","5f58579578b8a03bd512b9e6","664e0f7db604c956289ca547","","","[4,2]","left","[1,0]","1","3674.9000000003725","0","1214.7999999998137"
"","","","","","jsShapes","13","108300","0.0-3.0-0.10","664d169a152835c08e3e5d2a","5f58579578b8a03bd512b9e6","664e0f7db604c956289ca547","","","[1,4]","right","[1,2]","0","3265.0999999996275","0","1849.7000000001863"
"","","","","","jsShapes","14","111689","0.0-3.0-0.11","664d169a152835c08e3e5d2a","5f58579578b8a03bd512b9e6","664e0f7db604c956289ca547","","","[0,1]","left","[0,1]","0","2383.100000000559","1","990.7000000001863"
"","","","","","jsShapes","15","118714","0.0-3.0-0.12","664d169a152835c08e3e5d2a","5f58579578b8a03bd512b9e6","664e0f7db604c956289ca547","","","[0,1]","right","[1,0]","0","5498.199999999255","0.9745370370370371","1514.2000000001863"
"","","","","","jsShapes","16","122659","0.0-3.0-0.13","664d169a152835c08e3e5d2a","5f58579578b8a03bd512b9e6","664e0f7db604c956289ca547","","","[2,4]","right","[1,3]","1","2679","0","1247.8999999994412"
"","","","","","jsShapes","17","125710","0.0-3.0-0.14","664d169a152835c08e3e5d2a","5f58579578b8a03bd512b9e6","664e0f7db604c956289ca547","","","[0,1]","left","[0,2]","0","2097.600000000559","1","938.5999999996275"
"","","","","","jsShapes","18","131362","0.0-3.0-0.15","664d169a152835c08e3e5d2a","5f58579578b8a03bd512b9e6","664e0f7db604c956289ca547","","","[3,3]","left","[3,0]","0","4425.700000000186","0","1207.2000000001863"
"","","","","","survey-text","19","151070","0.0-4.0","664d169a152835c08e3e5d2a","5f58579578b8a03bd512b9e6","664e0f7db604c956289ca547","19703","","","","","{""worker_comments"":""None, thank you for the  opportunity""}","","",""
"","","","","","instructions","20","155694","0.0-5.0","664d169a152835c08e3e5d2a","5f58579578b8a03bd512b9e6","664e0f7db604c956289ca547","4622","[{""page_index"":0,""viewing_time"":4622}]","","","","","","",""
"success","timeout","failed_images","failed_audio","failed_video","trial_type","trial_index","time_elapsed","internal_node_id","STUDY_ID","PROLIFIC_PID","SESSION_ID","rt","view_history","shapes","occluder","options","response","RT","confidence","confidence_RT"
"true","false","[]","[]","[]","preload","0","27","0.0-0.0","664d169a152835c08e3e5d2a","5729bf1f685bec0008f8a4c6","66507c46d733599eb658f957","","","","","","","","",""
"true","","","","","fullscreen","1","3033","0.0-1.0","664d169a152835c08e3e5d2a","5729bf1f685bec0008f8a4c6","66507c46d733599eb658f957","1992","","","","","","","",""
"","","","","","instructions","2","34424","0.0-2.0","664d169a152835c08e3e5d2a","5729bf1f685bec0008f8a4c6","66507c46d733599eb658f957","31388","[{""page_index"":0,""viewing_time"":2741},{""page_index"":1,""viewing_time"":14334},{""page_index"":2,""viewing_time"":11651},{""page_index"":3,""viewing_time"":1847},{""page_index"":4,""viewing_time"":816}]","","","","","","",""
"","","","","","jsShapes","3","52114","0.0-3.0-0.0","664d169a152835c08e3e5d2a","5729bf1f685bec0008f8a4c6","66507c46d733599eb658f957","","","[0,1]","left","[0,1]","0","15027.699999999255","0","2650"
"","","","","","jsShapes","4","61077","0.0-3.0-0.1","664d169a152835c08e3e5d2a","5729bf1f685bec0008f8a4c6","66507c46d733599eb658f957","","","[2,4]","left","[0,4]","1","7462.199999999255","0.9722222222222222","1493.800000000745"
"","","","","","jsShapes","5","68540","0.0-3.0-0.2","664d169a152835c08e3e5d2a","5729bf1f685bec0008f8a4c6","66507c46d733599eb658f957","","","[3,4]","right","[1,0]","0","5816.800000000745","0","1643.7999999970198"
"","","","","","jsShapes","6","73388","0.0-3.0-0.3","664d169a152835c08e3e5d2a","5729bf1f685bec0008f8a4c6","66507c46d733599eb658f957","","","[0,1]","right","[4,1]","1","3098.199999999255","1","1737.6000000014901"
"","","","","","jsShapes","7","79302","0.0-3.0-0.4","664d169a152835c08e3e5d2a","5729bf1f685bec0008f8a4c6","66507c46d733599eb658f957","","","[3,4]","left","[2,0]","0","4667.699999999255","0","1237.5"
"","","","","","jsShapes","8","84799","0.0-3.0-0.5","664d169a152835c08e3e5d2a","5729bf1f685bec0008f8a4c6","66507c46d733599eb658f957","","","[2,4]","right","[0,1]","1","4302.89999999851","0","1180.6000000014901"
"","","","","","jsShapes","9","89380","0.0-3.0-0.6","664d169a152835c08e3e5d2a","5729bf1f685bec0008f8a4c6","66507c46d733599eb658f957","","","[0,1]","right","[1,3]","0","2678.400000002235","1","1886.3999999985099"
"","","","","","jsShapes","10","95694","0.0-3.0-0.7","664d169a152835c08e3e5d2a","5729bf1f685bec0008f8a4c6","66507c46d733599eb658f957","","","[0,1]","left","[0,3]","1","3383.599999997765","0","2909.800000000745"
"","","","","","jsShapes","11","99858","0.0-3.0-0.8","664d169a152835c08e3e5d2a","5729bf1f685bec0008f8a4c6","66507c46d733599eb658f957","","","[0,1]","right","[1,0]","0","2706","1","1446.0999999977648"
"","","","","","jsShapes","12","103723","0.0-3.0-0.9","664d169a152835c08e3e5d2a","5729bf1f685bec0008f8a4c6","66507c46d733599eb658f957","","","[0,1]","left","[0,4]","0","2290.7999999970198","0","1558.2000000029802"
"","","","","","jsShapes","13","109221","0.0-3.0-0.10","664d169a152835c08e3e5d2a","5729bf1f685bec0008f8a4c6","66507c46d733599eb658f957","","","[2,2]","right","[3,1]","0","4258.5","0","1236.5999999977648"
"","","","","","jsShapes","14","115534","0.0-3.0-0.11","664d169a152835c08e3e5d2a","5729bf1f685bec0008f8a4c6","66507c46d733599eb658f957","","","[3,0]","left","[0,4]","1","4690.699999999255","1","1618.800000000745"
"","","","","","jsShapes","15","125746","0.0-3.0-0.12","664d169a152835c08e3e5d2a","5729bf1f685bec0008f8a4c6","66507c46d733599eb658f957","","","[1,4]","left","[1,0]","0","8954.300000000745","1","1244.8999999985099"
"","","","","","jsShapes","16","129295","0.0-3.0-0.13","664d169a152835c08e3e5d2a","5729bf1f685bec0008f8a4c6","66507c46d733599eb658f957","","","[0,1]","right","[2,1]","1","2267","1","1278.5"
"","","","","","jsShapes","17","142805","0.0-3.0-0.14","664d169a152835c08e3e5d2a","5729bf1f685bec0008f8a4c6","66507c46d733599eb658f957","","","[3,3]","right","[1,0]","1","11558.699999999255","0","1938"
"","","","","","jsShapes","18","147004","0.0-3.0-0.15","664d169a152835c08e3e5d2a","5729bf1f685bec0008f8a4c6","66507c46d733599eb658f957","","","[0,1]","left","[1,0]","1","2791.800000000745","0","1405.699999999255"
"","","","","","survey-text","19","149319","0.0-4.0","664d169a152835c08e3e5d2a","5729bf1f685bec0008f8a4c6","66507c46d733599eb658f957","2307","","","","","{""worker_comments"":""""}","","",""
"","","","","","instructions","20","150906","0.0-5.0","664d169a152835c08e3e5d2a","5729bf1f685bec0008f8a4c6","66507c46d733599eb658f957","1586","[{""page_index"":0,""viewing_time"":1586}]","","","","","","",""
"success","timeout","failed_images","failed_audio","failed_video","trial_type","trial_index","time_elapsed","internal_node_id","STUDY_ID","PROLIFIC_PID","SESSION_ID","rt","view_history","shapes","occluder","options","response","RT","confidence","confidence_RT"
"true","false","[]","[]","[]","preload","0","196","0.0-0.0","664d169a152835c08e3e5d2a","5f4d9d4eda9c14a79d9e821e","664e10cbb104112db52b1999","","","","","","","","",""
"true","","","","","fullscreen","1","3256","0.0-1.0","664d169a152835c08e3e5d2a","5f4d9d4eda9c14a79d9e821e","664e10cbb104112db52b1999","2052","","","","","","","",""
"","","","","","instructions","2","47149","0.0-2.0","664d169a152835c08e3e5d2a","5f4d9d4eda9c14a79d9e821e","664e10cbb104112db52b1999","43893","[{""page_index"":0,""viewing_time"":2897},{""page_index"":1,""viewing_time"":28247},{""page_index"":2,""viewing_time"":9278},{""page_index"":3,""viewing_time"":2374},{""page_index"":4,""viewing_time"":1097}]","","","","","","",""
"","","","","","jsShapes","3","56074","0.0-3.0-0.0","664d169a152835c08e3e5d2a","5f4d9d4eda9c14a79d9e821e","664e10cbb104112db52b1999","","","[0,1]","right","[3,1]","0","5808.700000047684","0.8402777777777778","3090.599999964237"
"","","","","","jsShapes","4","74167","0.0-3.0-0.1","664d169a152835c08e3e5d2a","5f4d9d4eda9c14a79d9e821e","664e10cbb104112db52b1999","","","[1,3]","right","[1,3]","1","14708.299999952316","0.7685185185185185","3378.600000023842"
"","","","","","jsShapes","5","79683","0.0-3.0-0.2","664d169a152835c08e3e5d2a","5f4d9d4eda9c14a79d9e821e","664e10cbb104112db52b1999","","","[2,3]","left","[2,0]","0","3520.099999964237","0.8634259259259259","1977.7000000476837"
"","","","","","jsShapes","6","93495","0.0-3.0-0.3","664d169a152835c08e3e5d2a","5f4d9d4eda9c14a79d9e821e","664e10cbb104112db52b1999","","","[0,1]","left","[4,0]","1","12045.800000011921","0.9930555555555556","1747.199999988079"
"","","","","","jsShapes","7","101093","0.0-3.0-0.4","664d169a152835c08e3e5d2a","5f4d9d4eda9c14a79d9e821e","664e10cbb104112db52b1999","","","[2,0]","right","[2,1]","0","3198.5","0.03472222222222221","4388"
"","","","","","jsShapes","8","108757","0.0-3.0-0.5","664d169a152835c08e3e5d2a","5f4d9d4eda9c14a79d9e821e","664e10cbb104112db52b1999","","","[1,0]","left","[0,2]","1","5198.700000047684","0.9212962962962963","2452"
"","","","","","jsShapes","9","113622","0.0-3.0-0.6","664d169a152835c08e3e5d2a","5f4d9d4eda9c14a79d9e821e","664e10cbb104112db52b1999","","","[0,1]","right","[4,1]","1","3345.300000011921","1","1514.800000011921"
"","","","","","jsShapes","10","118654","0.0-3.0-0.7","664d169a152835c08e3e5d2a","5f4d9d4eda9c14a79d9e821e","664e10cbb104112db52b1999","","","[0,1]","left","[4,0]","1","3313.100000023842","1","1716.3999999761581"
"","","","","","jsShapes","11","123569","0.0-3.0-0.8","664d169a152835c08e3e5d2a","5f4d9d4eda9c14a79d9e821e","664e10cbb104112db52b1999","","","[0,1]","left","[0,2]","0","3272.600000023842","1","1641.6000000238419"
"","","","","","jsShapes","12","130534","0.0-3.0-0.9","664d169a152835c08e3e5d2a","5f4d9d4eda9c14a79d9e821e","664e10cbb104112db52b1999","","","[3,4]","right","[1,4]","1","5105.300000011921","0.8032407407407407","1843.3999999761581"
"","","","","","jsShapes","13","135350","0.0-3.0-0.10","664d169a152835c08e3e5d2a","5f4d9d4eda9c14a79d9e821e","664e10cbb104112db52b1999","","","[0,1]","right","[2,1]","1","3106.5","0.9861111111111112","1695.699999988079"
"","","","","","jsShapes","14","140315","0.0-3.0-0.11","664d169a152835c08e3e5d2a","5f4d9d4eda9c14a79d9e821e","664e10cbb104112db52b1999","","","[1,2]","left","[0,1]","0","3212.2000000476837","0.9768518518518519","1739.699999988079"
"","","","","","jsShapes","15","145463","0.0-3.0-0.12","664d169a152835c08e3e5d2a","5f4d9d4eda9c14a79d9e821e","664e10cbb104112db52b1999","","","[0,1]","right","[2,1]","1","3365.399999976158","0.9930555555555556","1765.6000000238419"
"","","","","","jsShapes","16","150695","0.0-3.0-0.13","664d169a152835c08e3e5d2a","5f4d9d4eda9c14a79d9e821e","664e10cbb104112db52b1999","","","[2,3]","right","[4,1]","0","2917.099999964237","0.7777777777777778","2301.300000011921"
"","","","","","jsShapes","17","156844","0.0-3.0-0.14","664d169a152835c08e3e5d2a","5f4d9d4eda9c14a79d9e821e","664e10cbb104112db52b1999","","","[3,3]","left","[2,0]","0","4444.399999976158","0.8703703703703703","1698.6000000238419"
"","","","","","jsShapes","18","161392","0.0-3.0-0.15","664d169a152835c08e3e5d2a","5f4d9d4eda9c14a79d9e821e","664e10cbb104112db52b1999","","","[0,1]","left","[1,0]","1","2636.5","0.9930555555555556","1903.6000000238419"
"","","","","","survey-text","19","165772","0.0-4.0","664d169a152835c08e3e5d2a","5f4d9d4eda9c14a79d9e821e","664e10cbb104112db52b1999","4376","","","","","{""worker_comments"":""""}","","",""
"","","","","","instructions","20","167881","0.0-5.0","664d169a152835c08e3e5d2a","5f4d9d4eda9c14a79d9e821e","664e10cbb104112db52b1999","2108","[{""page_index"":0,""viewing_time"":2108}]","","","","","","",""
"success","timeout","failed_images","failed_audio","failed_video","trial_type","trial_index","time_elapsed","internal_node_id","STUDY_ID","PROLIFIC_PID","SESSION_ID","rt","view_history","shapes","occluder","options","response","RT","confidence","confidence_RT"
"true","false","[]","[]","[]","preload","0","43","0.0-0.0","664d169a152835c08e3e5d2a","5a24facd7413810001521f7a","665082889f230b4b8a521867","","","","","","","","",""
"true","","","","","fullscreen","1","5386","0.0-1.0","664d169a152835c08e3e5d2a","5a24facd7413810001521f7a","665082889f230b4b8a521867","4336","","","","","","","",""
"","","","","","instructions","2","28588","0.0-2.0","664d169a152835c08e3e5d2a","5a24facd7413810001521f7a","665082889f230b4b8a521867","23200","[{""page_index"":0,""viewing_time"":1510},{""page_index"":1,""viewing_time"":11239},{""page_index"":2,""viewing_time"":7400},{""page_index"":3,""viewing_time"":1952},{""page_index"":4,""viewing_time"":1100}]","","","","","","",""
"","","","","","jsShapes","3","37426","0.0-3.0-0.0","664d169a152835c08e3e5d2a","5a24facd7413810001521f7a","665082889f230b4b8a521867","","","[0,1]","right","[3,1]","1","6627.199999988079","0.6027777777777779","2193.4000000059605"
"","","","","","jsShapes","4","49621","0.0-3.0-0.1","664d169a152835c08e3e5d2a","5a24facd7413810001521f7a","665082889f230b4b8a521867","","","[3,2]","left","[0,2]","1","10600.300000011921","0.6027777777777779","1578.9000000059605"
"","","","","","jsShapes","5","61567","0.0-3.0-0.2","664d169a152835c08e3e5d2a","5a24facd7413810001521f7a","665082889f230b4b8a521867","","","[4,4]","right","[1,2]","1","9916","0.3055555555555556","2019.199999988079"
"","","","","","jsShapes","6","69314","0.0-3.0-0.3","664d169a152835c08e3e5d2a","5a24facd7413810001521f7a","665082889f230b4b8a521867","","","[0,1]","left","[0,4]","0","5856.300000011921","0.4722222222222222","1876.699999988079"
"","","","","","jsShapes","7","76562","0.0-3.0-0.4","664d169a152835c08e3e5d2a","5a24facd7413810001521f7a","665082889f230b4b8a521867","","","[0,1]","left","[0,1]","0","5483","0.5305555555555556","1744.5999999940395"
"","","","","","jsShapes","8","81660","0.0-3.0-0.5","664d169a152835c08e3e5d2a","5a24facd7413810001521f7a","665082889f230b4b8a521867","","","[3,2]","right","[2,1]","0","3396.5999999940395","0.5083333333333333","1683.4000000059605"
"","","","","","jsShapes","9","87008","0.0-3.0-0.6","664d169a152835c08e3e5d2a","5a24facd7413810001521f7a","665082889f230b4b8a521867","","","[1,4]","left","[1,0]","0","4274.5999999940395","0.5083333333333333","1060.300000011921"
"","","","","","jsShapes","10","94739","0.0-3.0-0.7","664d169a152835c08e3e5d2a","5a24facd7413810001521f7a","665082889f230b4b8a521867","","","[0,1]","right","[2,1]","1","5933.300000011921","0.8305555555555555","1776.5"
"","","","","","jsShapes","11","101435","0.0-3.0-0.8","664d169a152835c08e3e5d2a","5a24facd7413810001521f7a","665082889f230b4b8a521867","","","[2,4]","left","[0,3]","1","4647.300000011921","0.5333333333333333","2031.5999999940395"
"","","","","","jsShapes","12","115581","0.0-3.0-0.9","664d169a152835c08e3e5d2a","5a24facd7413810001521f7a","665082889f230b4b8a521867","","","[1,4]","right","[2,1]","0","12842.800000011921","0.4722222222222222","1298.9000000059605"
"","","","","","jsShapes","13","120263","0.0-3.0-0.10","664d169a152835c08e3e5d2a","5a24facd7413810001521f7a","665082889f230b4b8a521867","","","[0,1]","right","[0,1]","1","3260.2000000178814","0.9805555555555555","1405.199999988079"
"","","","","","jsShapes","14","124612","0.0-3.0-0.11","664d169a152835c08e3e5d2a","5a24facd7413810001521f7a","665082889f230b4b8a521867","","","[0,1]","left","[0,1]","0","2867.300000011921","0.6111111111111112","1454.699999988079"
"","","","","","jsShapes","15","128044","0.0-3.0-0.12","664d169a152835c08e3e5d2a","5a24facd7413810001521f7a","665082889f230b4b8a521867","","","[1,3]","right","[1,0]","1","1992.9000000059605","0.8277777777777777","1429"
"","","","","","jsShapes","16","132709","0.0-3.0-0.13","664d169a152835c08e3e5d2a","5a24facd7413810001521f7a","665082889f230b4b8a521867","","","[0,1]","right","[1,4]","0","3481.5","0.7388888888888889","1167.0999999940395"
"","","","","","jsShapes","17","150852","0.0-3.0-0.14","664d169a152835c08e3e5d2a","5a24facd7413810001521f7a","665082889f230b4b8a521867","","","[1,0]","left","[0,3]","1","16754.59999999404","0.5222222222222221","1369.7000000178814"
"","","","","","jsShapes","18","156651","0.0-3.0-0.15","664d169a152835c08e3e5d2a","5a24facd7413810001521f7a","665082889f230b4b8a521867","","","[0,1]","left","[2,0]","0","3651.5999999940395","0.19999999999999996","2136.9000000059605"
"","","","","","survey-text","19","158701","0.0-4.0","664d169a152835c08e3e5d2a","5a24facd7413810001521f7a","665082889f230b4b8a521867","2040","","","","","{""worker_comments"":""""}","","",""
"","","","","","instructions","20","161072","0.0-5.0","664d169a152835c08e3e5d2a","5a24facd7413810001521f7a","665082889f230b4b8a521867","2369","[{""page_index"":0,""viewing_time"":2369}]","","","","","","",""
"success","timeout","failed_images","failed_audio","failed_video","trial_type","trial_index","time_elapsed","internal_node_id","STUDY_ID","PROLIFIC_PID","SESSION_ID","rt","view_history","shapes","occluder","options","response","RT","confidence","confidence_RT"
"true","false","[]","[]","[]","preload","0","77","0.0-0.0","664d169a152835c08e3e5d2a","62a0d3f66ad9919c9cd8d8e8","664e10f9e1e13ead0e06340d","","","","","","","","",""
"true","","","","","fullscreen","1","2560","0.0-1.0","664d169a152835c08e3e5d2a","62a0d3f66ad9919c9cd8d8e8","664e10f9e1e13ead0e06340d","1476","","","","","","","",""
"","","","","","instructions","2","44491","0.0-2.0","664d169a152835c08e3e5d2a","62a0d3f66ad9919c9cd8d8e8","664e10f9e1e13ead0e06340d","41928","[{""page_index"":0,""viewing_time"":1733},{""page_index"":1,""viewing_time"":28497},{""page_index"":2,""viewing_time"":8936},{""page_index"":3,""viewing_time"":1954},{""page_index"":4,""viewing_time"":808}]","","","","","","",""
"","","","","","jsShapes","3","82677","0.0-3.0-0.0","664d169a152835c08e3e5d2a","62a0d3f66ad9919c9cd8d8e8","664e10f9e1e13ead0e06340d","","","[2,2]","left","[0,4]","1","35898","0.17447916666666663","2243.5"
"","","","","","jsShapes","4","104836","0.0-3.0-0.1","664d169a152835c08e3e5d2a","62a0d3f66ad9919c9cd8d8e8","664e10f9e1e13ead0e06340d","","","[4,2]","right","[1,3]","0","20580.900000002235","0.15885416666666663","1548.800000000745"
"","","","","","jsShapes","5","111746","0.0-3.0-0.2","664d169a152835c08e3e5d2a","62a0d3f66ad9919c9cd8d8e8","664e10f9e1e13ead0e06340d","","","[0,1]","right","[1,4]","0","5187.199999999255","0.6640625","1699.7000000029802"
"","","","","","jsShapes","6","117760","0.0-3.0-0.3","664d169a152835c08e3e5d2a","62a0d3f66ad9919c9cd8d8e8","664e10f9e1e13ead0e06340d","","","[0,1]","left","[0,2]","0","4462.89999999851","0.71875","1541.800000000745"
"","","","","","jsShapes","7","134444","0.0-3.0-0.4","664d169a152835c08e3e5d2a","62a0d3f66ad9919c9cd8d8e8","664e10f9e1e13ead0e06340d","","","[3,0]","left","[4,0]","0","14519.599999997765","0.20833333333333337","2142.400000002235"
"","","","","","jsShapes","8","139043","0.0-3.0-0.5","664d169a152835c08e3e5d2a","62a0d3f66ad9919c9cd8d8e8","664e10f9e1e13ead0e06340d","","","[0,1]","right","[3,1]","1","3279.400000002235","0.3515625","1308.300000000745"
"","","","","","jsShapes","9","148465","0.0-3.0-0.6","664d169a152835c08e3e5d2a","62a0d3f66ad9919c9cd8d8e8","664e10f9e1e13ead0e06340d","","","[3,3]","right","[1,0]","1","7803.60000000149","0.17447916666666663","1604.800000000745"
"","","","","","jsShapes","10","161021","0.0-3.0-0.7","664d169a152835c08e3e5d2a","62a0d3f66ad9919c9cd8d8e8","664e10f9e1e13ead0e06340d","","","[0,1]","left","[0,3]","0","5227.10000000149","0.2109375","7310.300000000745"
"","","","","","jsShapes","11","166733","0.0-3.0-0.8","664d169a152835c08e3e5d2a","62a0d3f66ad9919c9cd8d8e8","664e10f9e1e13ead0e06340d","","","[4,2]","left","[4,0]","0","4475.599999997765","0.15104166666666663","1224.199999999255"
"","","","","","jsShapes","12","172544","0.0-3.0-0.9","664d169a152835c08e3e5d2a","62a0d3f66ad9919c9cd8d8e8","664e10f9e1e13ead0e06340d","","","[0,1]","left","[1,0]","1","4717.800000000745","0.24739583333333337","1080.300000000745"
"","","","","","jsShapes","13","176774","0.0-3.0-0.10","664d169a152835c08e3e5d2a","62a0d3f66ad9919c9cd8d8e8","664e10f9e1e13ead0e06340d","","","[0,1]","right","[3,1]","1","3078","0.23697916666666663","1133.699999999255"
"","","","","","jsShapes","14","183401","0.0-3.0-0.11","664d169a152835c08e3e5d2a","62a0d3f66ad9919c9cd8d8e8","664e10f9e1e13ead0e06340d","","","[3,4]","right","[0,1]","0","5468.400000002235","0.23697916666666663","1141.300000000745"
"","","","","","jsShapes","15","189396","0.0-3.0-0.12","664d169a152835c08e3e5d2a","62a0d3f66ad9919c9cd8d8e8","664e10f9e1e13ead0e06340d","","","[0,1]","left","[0,3]","0","4867.400000002235","0.21354166666666663","1108.3999999985099"
"","","","","","jsShapes","16","193293","0.0-3.0-0.13","664d169a152835c08e3e5d2a","62a0d3f66ad9919c9cd8d8e8","664e10f9e1e13ead0e06340d","","","[0,1]","right","[0,1]","1","2845.400000002235","0.20572916666666663","1018.3999999985099"
"","","","","","jsShapes","17","200970","0.0-3.0-0.14","664d169a152835c08e3e5d2a","62a0d3f66ad9919c9cd8d8e8","664e10f9e1e13ead0e06340d","","","[3,2]","right","[1,3]","0","6561.099999997765","0.203125","1098.699999999255"
"","","","","","jsShapes","18","209662","0.0-3.0-0.15","664d169a152835c08e3e5d2a","62a0d3f66ad9919c9cd8d8e8","664e10f9e1e13ead0e06340d","","","[4,4]","left","[0,3]","1","7592.599999997765","0.09114583333333337","1090.6000000014901"
"","","","","","survey-text","19","239303","0.0-4.0","664d169a152835c08e3e5d2a","62a0d3f66ad9919c9cd8d8e8","664e10f9e1e13ead0e06340d","29623","","","","","{""worker_comments"":""I found it hard to figure out the pattern and what was meant by it""}","","",""
"","","","","","instructions","20","241566","0.0-5.0","664d169a152835c08e3e5d2a","62a0d3f66ad9919c9cd8d8e8","664e10f9e1e13ead0e06340d","2260","[{""page_index"":0,""viewing_time"":2259}]","","","","","","",""
"success","timeout","failed_images","failed_audio","failed_video","trial_type","trial_index","time_elapsed","internal_node_id","STUDY_ID","PROLIFIC_PID","SESSION_ID","rt","view_history","shapes","occluder","options","response","RT","confidence","confidence_RT"
"true","false","[]","[]","[]","preload","0","281","0.0-0.0","664d169a152835c08e3e5d2a","60a2f63edb72812b711ba128","66508346d80b7d3ccd96bca1","","","","","","","","",""
"true","","","","","fullscreen","1","13323","0.0-1.0","664d169a152835c08e3e5d2a","60a2f63edb72812b711ba128","66508346d80b7d3ccd96bca1","12025","","","","","","","",""
"","","","","","instructions","2","61481","0.0-2.0","664d169a152835c08e3e5d2a","60a2f63edb72812b711ba128","66508346d80b7d3ccd96bca1","48154","[{""page_index"":0,""viewing_time"":2894},{""page_index"":1,""viewing_time"":32549},{""page_index"":2,""viewing_time"":8930},{""page_index"":3,""viewing_time"":2018},{""page_index"":4,""viewing_time"":1761}]","","","","","","",""
"","","","","","jsShapes","3","83814","0.0-3.0-0.0","664d169a152835c08e3e5d2a","60a2f63edb72812b711ba128","66508346d80b7d3ccd96bca1","","","[0,1]","left","[0,3]","0","16998.19999999553","1","5262.4000000059605"
"","","","","","jsShapes","4","90492","0.0-3.0-0.1","664d169a152835c08e3e5d2a","60a2f63edb72812b711ba128","66508346d80b7d3ccd96bca1","","","[4,2]","left","[0,3]","1","4915","1","1752.2000000029802"
"","","","","","jsShapes","5","94911","0.0-3.0-0.2","664d169a152835c08e3e5d2a","60a2f63edb72812b711ba128","66508346d80b7d3ccd96bca1","","","[1,3]","right","[3,1]","0","3080.2000000029802","1","1319.6000000014901"
"","","","","","jsShapes","6","101077","0.0-3.0-0.3","664d169a152835c08e3e5d2a","60a2f63edb72812b711ba128","66508346d80b7d3ccd96bca1","","","[0,1]","right","[3,1]","1","5029.30000000447","1","1117.8999999985099"
"","","","","","jsShapes","7","107161","0.0-3.0-0.4","664d169a152835c08e3e5d2a","60a2f63edb72812b711ba128","66508346d80b7d3ccd96bca1","","","[0,1]","left","[2,0]","1","4813.29999999702","1","1266"
"","","","","","jsShapes","8","112356","0.0-3.0-0.5","664d169a152835c08e3e5d2a","60a2f63edb72812b711ba128","66508346d80b7d3ccd96bca1","","","[0,1]","right","[2,1]","1","4199.29999999702","1","996.1000000014901"
"","","","","","jsShapes","9","123320","0.0-3.0-0.6","664d169a152835c08e3e5d2a","60a2f63edb72812b711ba128","66508346d80b7d3ccd96bca1","","","[2,3]","right","[1,0]","1","9883.39999999851","1","1074.6000000014901"
"","","","","","jsShapes","10","130753","0.0-3.0-0.7","664d169a152835c08e3e5d2a","60a2f63edb72812b711ba128","66508346d80b7d3ccd96bca1","","","[1,0]","left","[4,0]","0","6253","1","1166.6000000014901"
"","","","","","jsShapes","11","136603","0.0-3.0-0.8","664d169a152835c08e3e5d2a","60a2f63edb72812b711ba128","66508346d80b7d3ccd96bca1","","","[0,1]","right","[2,1]","1","3287.3000000044703","1","2549.2999999970198"
"","","","","","jsShapes","12","140070","0.0-3.0-0.9","664d169a152835c08e3e5d2a","60a2f63edb72812b711ba128","66508346d80b7d3ccd96bca1","","","[3,0]","right","[4,1]","0","2519","1","940.3999999985099"
"","","","","","jsShapes","13","143337","0.0-3.0-0.10","664d169a152835c08e3e5d2a","60a2f63edb72812b711ba128","66508346d80b7d3ccd96bca1","","","[3,2]","left","[0,3]","1","2242.5","1","1008.6999999955297"
"","","","","","jsShapes","14","146920","0.0-3.0-0.11","664d169a152835c08e3e5d2a","60a2f63edb72812b711ba128","66508346d80b7d3ccd96bca1","","","[0,1]","left","[2,0]","1","2146","1","1431.3999999985099"
"","","","","","jsShapes","15","151986","0.0-3.0-0.12","664d169a152835c08e3e5d2a","60a2f63edb72812b711ba128","66508346d80b7d3ccd96bca1","","","[1,0]","left","[3,0]","0","3876.6999999955297","1","1155.1000000014901"
"","","","","","jsShapes","16","155771","0.0-3.0-0.13","664d169a152835c08e3e5d2a","60a2f63edb72812b711ba128","66508346d80b7d3ccd96bca1","","","[0,1]","left","[0,2]","0","2438.3000000044703","1","1342"
"","","","","","jsShapes","17","159703","0.0-3.0-0.14","664d169a152835c08e3e5d2a","60a2f63edb72812b711ba128","66508346d80b7d3ccd96bca1","","","[0,1]","right","[1,4]","0","2221.8000000044703","1","1687.1999999955297"
"","","","","","jsShapes","18","165524","0.0-3.0-0.15","664d169a152835c08e3e5d2a","60a2f63edb72812b711ba128","66508346d80b7d3ccd96bca1","","","[3,4]","right","[1,0]","1","4358.19999999553","1","1453.5"
"","","","","","survey-text","19","179254","0.0-4.0","664d169a152835c08e3e5d2a","60a2f63edb72812b711ba128","66508346d80b7d3ccd96bca1","13695","","","","","{""worker_comments"":""I am curious as to what this was about haha.""}","","",""
"","","","","","instructions","20","185399","0.0-5.0","664d169a152835c08e3e5d2a","60a2f63edb72812b711ba128","66508346d80b7d3ccd96bca1","6140","[{""page_index"":0,""viewing_time"":6139}]","","","","","","",""
"success","timeout","failed_images","failed_audio","failed_video","trial_type","trial_index","time_elapsed","internal_node_id","STUDY_ID","PROLIFIC_PID","SESSION_ID","rt","view_history","shapes","occluder","options","response","RT","confidence","confidence_RT"
"true","false","[]","[]","[]","preload","0","89","0.0-0.0","664d169a152835c08e3e5d2a","5e766b0ba02ca51dfa1de797","665088f780dcbab2b2b01146","","","","","","","","",""
"true","","","","","fullscreen","1","6001","0.0-1.0","664d169a152835c08e3e5d2a","5e766b0ba02ca51dfa1de797","665088f780dcbab2b2b01146","4902","","","","","","","",""
"","","","","","instructions","2","111910","0.0-2.0","664d169a152835c08e3e5d2a","5e766b0ba02ca51dfa1de797","665088f780dcbab2b2b01146","105910","[{""page_index"":0,""viewing_time"":10230},{""page_index"":1,""viewing_time"":67916},{""page_index"":2,""viewing_time"":12282},{""page_index"":3,""viewing_time"":12562},{""page_index"":4,""viewing_time"":2918}]","","","","","","",""
"","","","","","jsShapes","3","126824","0.0-3.0-0.0","664d169a152835c08e3e5d2a","5e766b0ba02ca51dfa1de797","665088f780dcbab2b2b01146","","","[1,0]","right","[1,2]","0","12908.899999976158","1","1969.4000000953674"
"","","","","","jsShapes","4","135046","0.0-3.0-0.1","664d169a152835c08e3e5d2a","5e766b0ba02ca51dfa1de797","665088f780dcbab2b2b01146","","","[3,4]","left","[2,0]","0","7159.100000023842","0.4692982456140351","1055"
"","","","","","jsShapes","5","142385","0.0-3.0-0.2","664d169a152835c08e3e5d2a","5e766b0ba02ca51dfa1de797","665088f780dcbab2b2b01146","","","[0,1]","right","[1,0]","0","6078.799999952316","0.9583333333333334","1243.8999999761581"
"","","","","","jsShapes","6","149608","0.0-3.0-0.3","664d169a152835c08e3e5d2a","5e766b0ba02ca51dfa1de797","665088f780dcbab2b2b01146","","","[0,1]","left","[1,0]","1","5894.100000023842","0.48793859649122806","1310"
"","","","","","jsShapes","7","153477","0.0-3.0-0.4","664d169a152835c08e3e5d2a","5e766b0ba02ca51dfa1de797","665088f780dcbab2b2b01146","","","[0,1]","right","[3,1]","1","2622.100000023842","0.981359649122807","1228.3000000715256"
"","","","","","jsShapes","8","160615","0.0-3.0-0.5","664d169a152835c08e3e5d2a","5e766b0ba02ca51dfa1de797","665088f780dcbab2b2b01146","","","[2,4]","left","[4,0]","0","5803.600000023842","0.9824561403508771","1329.7999999523163"
"","","","","","jsShapes","9","165719","0.0-3.0-0.6","664d169a152835c08e3e5d2a","5e766b0ba02ca51dfa1de797","665088f780dcbab2b2b01146","","","[3,0]","right","[3,1]","0","4207.700000047684","0.7741228070175439","886.3999999761581"
"","","","","","jsShapes","10","172373","0.0-3.0-0.7","664d169a152835c08e3e5d2a","5e766b0ba02ca51dfa1de797","665088f780dcbab2b2b01146","","","[0,1]","left","[0,2]","0","5674.100000023842","0.9572368421052632","964.3999999761581"
"","","","","","jsShapes","11","176142","0.0-3.0-0.8","664d169a152835c08e3e5d2a","5e766b0ba02ca51dfa1de797","665088f780dcbab2b2b01146","","","[4,3]","left","[0,4]","1","2519.4000000953674","0.9583333333333334","1239.8999999761581"
"","","","","","jsShapes","12","182213","0.0-3.0-0.9","664d169a152835c08e3e5d2a","5e766b0ba02ca51dfa1de797","665088f780dcbab2b2b01146","","","[2,2]","right","[0,1]","1","4812.699999928474","0","1243.6000000238419"
"","","","","","jsShapes","13","186016","0.0-3.0-0.10","664d169a152835c08e3e5d2a","5e766b0ba02ca51dfa1de797","665088f780dcbab2b2b01146","","","[0,1]","right","[3,1]","1","2799.3000000715256","0.9868421052631579","986.7999999523163"
"","","","","","jsShapes","14","191153","0.0-3.0-0.11","664d169a152835c08e3e5d2a","5e766b0ba02ca51dfa1de797","665088f780dcbab2b2b01146","","","[0,1]","left","[4,0]","1","4113.200000047684","0.9649122807017544","1009.6000000238419"
"","","","","","jsShapes","15","198591","0.0-3.0-0.12","664d169a152835c08e3e5d2a","5e766b0ba02ca51dfa1de797","665088f780dcbab2b2b01146","","","[0,1]","left","[3,0]","1","6391.299999952316","0.9703947368421053","1043.7000000476837"
"","","","","","jsShapes","16","212484","0.0-3.0-0.13","664d169a152835c08e3e5d2a","5e766b0ba02ca51dfa1de797","665088f780dcbab2b2b01146","","","[2,0]","left","[1,0]","1","12782.899999976158","0.013157894736842146","1102.7999999523163"
"","","","","","jsShapes","17","217737","0.0-3.0-0.14","664d169a152835c08e3e5d2a","5e766b0ba02ca51dfa1de797","665088f780dcbab2b2b01146","","","[1,0]","right","[4,1]","0","4294","0","950.5999999046326"
"","","","","","jsShapes","18","221740","0.0-3.0-0.15","664d169a152835c08e3e5d2a","5e766b0ba02ca51dfa1de797","665088f780dcbab2b2b01146","","","[0,1]","right","[1,2]","0","3036","0.9956140350877193","952.6000000238419"
"","","","","","survey-text","19","246815","0.0-4.0","664d169a152835c08e3e5d2a","5e766b0ba02ca51dfa1de797","665088f780dcbab2b2b01146","25063","","","","","{""worker_comments"":""It was interesting, but equally confusing""}","","",""
"","","","","","instructions","20","250003","0.0-5.0","664d169a152835c08e3e5d2a","5e766b0ba02ca51dfa1de797","665088f780dcbab2b2b01146","3187","[{""page_index"":0,""viewing_time"":3187}]","","","","","","",""
"success","timeout","failed_images","failed_audio","failed_video","trial_type","trial_index","time_elapsed","internal_node_id","STUDY_ID","PROLIFIC_PID","SESSION_ID","rt","view_history","shapes","occluder","options","response","RT","confidence","confidence_RT"
"true","false","[]","[]","[]","preload","0","34","0.0-0.0","664d169a152835c08e3e5d2a","5ff73fdf2da88b3a26e7ca94","664e1ab3df7e3600a9488cd9","","","","","","","","",""
"true","","","","","fullscreen","1","2307","0.0-1.0","664d169a152835c08e3e5d2a","5ff73fdf2da88b3a26e7ca94","664e1ab3df7e3600a9488cd9","1269","","","","","","","",""
"","","","","","instructions","2","38903","0.0-2.0","664d169a152835c08e3e5d2a","5ff73fdf2da88b3a26e7ca94","664e1ab3df7e3600a9488cd9","36595","[{""page_index"":0,""viewing_time"":639},{""page_index"":1,""viewing_time"":20138},{""page_index"":2,""viewing_time"":8993},{""page_index"":1,""viewing_time"":224},{""page_index"":2,""viewing_time"":3537},{""page_index"":3,""viewing_time"":2344},{""page_index"":4,""viewing_time"":720}]","","","","","","",""
"","","","","","jsShapes","3","48327","0.0-3.0-0.0","664d169a152835c08e3e5d2a","5ff73fdf2da88b3a26e7ca94","664e1ab3df7e3600a9488cd9","","","[0,1]","right","[0,1]","1","8069.600000023842","0.9018518518518519","1350.3999999761581"
"","","","","","jsShapes","4","58134","0.0-3.0-0.1","664d169a152835c08e3e5d2a","5ff73fdf2da88b3a26e7ca94","664e1ab3df7e3600a9488cd9","","","[3,3]","right","[4,1]","0","8584.900000035763","0.8240740740740741","1213.2999999523163"
"","","","","","jsShapes","5","61099","0.0-3.0-0.2","664d169a152835c08e3e5d2a","5ff73fdf2da88b3a26e7ca94","664e1ab3df7e3600a9488cd9","","","[2,2]","left","[0,4]","0","1538.699999988079","0.7851851851851852","1421.2000000476837"
"","","","","","jsShapes","6","68524","0.0-3.0-0.3","664d169a152835c08e3e5d2a","5ff73fdf2da88b3a26e7ca94","664e1ab3df7e3600a9488cd9","","","[0,1]","left","[0,3]","1","6387.099999964237","0.8203703703703704","1015.1000000238419"
"","","","","","jsShapes","7","71559","0.0-3.0-0.4","664d169a152835c08e3e5d2a","5ff73fdf2da88b3a26e7ca94","664e1ab3df7e3600a9488cd9","","","[2,4]","right","[3,1]","0","2349.5","0.8148148148148149","679"
"","","","","","jsShapes","8","74288","0.0-3.0-0.5","664d169a152835c08e3e5d2a","5ff73fdf2da88b3a26e7ca94","664e1ab3df7e3600a9488cd9","","","[0,1]","right","[3,1]","1","1635.1000000238419","0.9981481481481481","1081.8999999761581"
"","","","","","jsShapes","9","77032","0.0-3.0-0.6","664d169a152835c08e3e5d2a","5ff73fdf2da88b3a26e7ca94","664e1ab3df7e3600a9488cd9","","","[4,4]","left","[0,4]","1","1975.6000000238419","0.6148148148148148","763.1000000238419"
"","","","","","jsShapes","10","85936","0.0-3.0-0.7","664d169a152835c08e3e5d2a","5ff73fdf2da88b3a26e7ca94","664e1ab3df7e3600a9488cd9","","","[0,1]","left","[0,3]","0","7779.699999988079","0.9666666666666667","1113.5999999642372"
"","","","","","jsShapes","11","88325","0.0-3.0-0.8","664d169a152835c08e3e5d2a","5ff73fdf2da88b3a26e7ca94","664e1ab3df7e3600a9488cd9","","","[0,1]","left","[0,1]","0","1692.0999999642372","0.9833333333333333","691"
