"success","timeout","failed_images","failed_audio","failed_video","trial_type","trial_index","time_elapsed","internal_node_id","STUDY_ID","PROLIFIC_PID","SESSION_ID","rt","view_history","shapes","occluder","options","response","RT","confidence","confidence_RT"
"true","false","[]","[]","[]","preload","0","153","0.0-0.0","66379be77a6207483b19502d","65c0146ae58552a0a8fc7ba8","6637e3cc9c755fdf10a66a8e","","","","","","","","",""
"true","","","","","fullscreen","1","2381","0.0-1.0","66379be77a6207483b19502d","65c0146ae58552a0a8fc7ba8","6637e3cc9c755fdf10a66a8e","1227","","","","","","","",""
"","","","","","instructions","2","47243","0.0-2.0","66379be77a6207483b19502d","65c0146ae58552a0a8fc7ba8","6637e3cc9c755fdf10a66a8e","44861","[{""page_index"":0,""viewing_time"":8333},{""page_index"":1,""viewing_time"":20357},{""page_index"":2,""viewing_time"":5475},{""page_index"":1,""viewing_time"":348},{""page_index"":2,""viewing_time"":6162},{""page_index"":3,""viewing_time"":2983},{""page_index"":4,""viewing_time"":1203}]","","","","","","",""
"","","","","","jsShapes","3","59801","0.0-3.0-0.0","66379be77a6207483b19502d","65c0146ae58552a0a8fc7ba8","6637e3cc9c755fdf10a66a8e","","","[3,3]","left","[0,4]","1","8872.099999904633","1","3656.699999809265"
"","","","","","jsShapes","4","66452","0.0-3.0-0.1","66379be77a6207483b19502d","65c0146ae58552a0a8fc7ba8","6637e3cc9c755fdf10a66a8e","","","[0,1]","right","[3,1]","1","5688.400000095367","1","957"
"","","","","","jsShapes","5","73898","0.0-3.0-0.2","66379be77a6207483b19502d","65c0146ae58552a0a8fc7ba8","6637e3cc9c755fdf10a66a8e","","","[4,3]","right","[4,1]","0","6353.599999904633","1","1080.9000000953674"
"","","","","","jsShapes","6","80316","0.0-3.0-0.3","66379be77a6207483b19502d","65c0146ae58552a0a8fc7ba8","6637e3cc9c755fdf10a66a8e","","","[0,1]","left","[3,0]","1","5409.799999713898","1","993.3000001907349"
"","","","","","jsShapes","7","83566","0.0-3.0-0.4","66379be77a6207483b19502d","65c0146ae58552a0a8fc7ba8","6637e3cc9c755fdf10a66a8e","","","[0,1]","right","[2,1]","1","2403.9000000953674","1","839.7999997138977"
"","","","","","jsShapes","8","87241","0.0-3.0-0.5","66379be77a6207483b19502d","65c0146ae58552a0a8fc7ba8","6637e3cc9c755fdf10a66a8e","","","[2,4]","left","[0,4]","1","2807.9000000953674","1","853.3000001907349"
"","","","","","jsShapes","9","92165","0.0-3.0-0.6","66379be77a6207483b19502d","65c0146ae58552a0a8fc7ba8","6637e3cc9c755fdf10a66a8e","","","[0,1]","left","[2,0]","1","4112.60000038147","1","794.0999999046326"
"","","","","","jsShapes","10","95819","0.0-3.0-0.7","66379be77a6207483b19502d","65c0146ae58552a0a8fc7ba8","6637e3cc9c755fdf10a66a8e","","","[3,3]","right","[2,1]","0","2780.7000002861023","1","869.5999999046326"
"","","","","","jsShapes","11","100376","0.0-3.0-0.8","66379be77a6207483b19502d","65c0146ae58552a0a8fc7ba8","6637e3cc9c755fdf10a66a8e","","","[0,1]","left","[0,1]","0","3774.6000003814697","1","775.1999998092651"
"","","","","","jsShapes","12","105021","0.0-3.0-0.9","66379be77a6207483b19502d","65c0146ae58552a0a8fc7ba8","6637e3cc9c755fdf10a66a8e","","","[4,2]","left","[1,0]","0","3903.0999999046326","1","736.2000002861023"
"","","","","","jsShapes","13","107723","0.0-3.0-0.10","66379be77a6207483b19502d","65c0146ae58552a0a8fc7ba8","6637e3cc9c755fdf10a66a8e","","","[2,3]","right","[1,0]","0","1940.5999999046326","0.9777777777777777","759.9000000953674"
"","","","","","jsShapes","14","111030","0.0-3.0-0.11","66379be77a6207483b19502d","65c0146ae58552a0a8fc7ba8","6637e3cc9c755fdf10a66a8e","","","[0,1]","right","[0,1]","1","2501.2999997138977","1","795.8000001907349"
"","","","","","jsShapes","15","113870","0.0-3.0-0.12","66379be77a6207483b19502d","65c0146ae58552a0a8fc7ba8","6637e3cc9c755fdf10a66a8e","","","[3,2]","left","[0,3]","1","2084.0999999046326","1","752.3000001907349"
"","","","","","jsShapes","16","119330","0.0-3.0-0.13","66379be77a6207483b19502d","65c0146ae58552a0a8fc7ba8","6637e3cc9c755fdf10a66a8e","","","[2,2]","right","[1,0]","1","4328.400000095367","1","1121.2999997138977"
"","","","","","jsShapes","17","122469","0.0-3.0-0.14","66379be77a6207483b19502d","65c0146ae58552a0a8fc7ba8","6637e3cc9c755fdf10a66a8e","","","[0,1]","right","[4,1]","1","2436.699999809265","1","694"
"","","","","","jsShapes","18","125310","0.0-3.0-0.15","66379be77a6207483b19502d","65c0146ae58552a0a8fc7ba8","6637e3cc9c755fdf10a66a8e","","","[0,1]","left","[3,0]","1","2110.7000002861023","1","713.2999997138977"
"","","","","","survey-text","19","130061","0.0-4.0","66379be77a6207483b19502d","65c0146ae58552a0a8fc7ba8","6637e3cc9c755fdf10a66a8e","4747","","","","","{""worker_comments"":""""}","","",""
"","","","","","instructions","20","134157","0.0-5.0","66379be77a6207483b19502d","65c0146ae58552a0a8fc7ba8","6637e3cc9c755fdf10a66a8e","4096","[{""page_index"":0,""viewing_time"":4096}]","","","","","","",""
"success","timeout","failed_images","failed_audio","failed_video","trial_type","trial_index","time_elapsed","internal_node_id","STUDY_ID","PROLIFIC_PID","SESSION_ID","rt","view_history","shapes","occluder","options","response","RT","confidence","confidence_RT"
"true","false","[]","[]","[]","preload","0","38","0.0-0.0","66379be77a6207483b19502d","62fb88be841f0dcba3db01ff","6637e3d07c4fcec16ca46572","","","","","","","","",""
"true","","","","","fullscreen","1","2505","0.0-1.0","66379be77a6207483b19502d","62fb88be841f0dcba3db01ff","6637e3d07c4fcec16ca46572","1464","","","","","","","",""
"","","","","","instructions","2","41729","0.0-2.0","66379be77a6207483b19502d","62fb88be841f0dcba3db01ff","6637e3d07c4fcec16ca46572","39224","[{""page_index"":0,""viewing_time"":2599},{""page_index"":1,""viewing_time"":24665},{""page_index"":2,""viewing_time"":7954},{""page_index"":3,""viewing_time"":3057},{""page_index"":4,""viewing_time"":949}]","","","","","","",""
"","","","","","jsShapes","3","60338","0.0-3.0-0.0","66379be77a6207483b19502d","62fb88be841f0dcba3db01ff","6637e3d07c4fcec16ca46572","","","[1,3]","right","[1,2]","1","16051.800000011921","0.2533333333333333","2545.300000011921"
"","","","","","jsShapes","4","67072","0.0-3.0-0.1","66379be77a6207483b19502d","62fb88be841f0dcba3db01ff","6637e3d07c4fcec16ca46572","","","[0,1]","right","[1,3]","0","5188.0999999940395","1","1538.9000000059605"
"","","","","","jsShapes","5","73555","0.0-3.0-0.2","66379be77a6207483b19502d","62fb88be841f0dcba3db01ff","6637e3d07c4fcec16ca46572","","","[0,1]","left","[0,3]","0","4409","0.9444444444444444","2067.300000011921"
"","","","","","jsShapes","6","79522","0.0-3.0-0.3","66379be77a6207483b19502d","62fb88be841f0dcba3db01ff","6637e3d07c4fcec16ca46572","","","[1,3]","left","[4,0]","0","4944.299999982119","0.20666666666666667","1018.3000000119209"
"","","","","","jsShapes","7","89705","0.0-3.0-0.4","66379be77a6207483b19502d","62fb88be841f0dcba3db01ff","6637e3d07c4fcec16ca46572","","","[4,4]","right","[1,4]","1","8814.5","0.10444444444444445","1361.199999988079"
"","","","","","jsShapes","8","99537","0.0-3.0-0.5","66379be77a6207483b19502d","62fb88be841f0dcba3db01ff","6637e3d07c4fcec16ca46572","","","[3,4]","left","[0,4]","1","8643.799999982119","0.7511111111111111","1183.2000000178814"
"","","","","","jsShapes","9","102571","0.0-3.0-0.6","66379be77a6207483b19502d","62fb88be841f0dcba3db01ff","6637e3d07c4fcec16ca46572","","","[0,1]","right","[1,0]","0","2143.800000011921","0.9533333333333334","884.9000000059605"
"","","","","","jsShapes","10","106904","0.0-3.0-0.7","66379be77a6207483b19502d","62fb88be841f0dcba3db01ff","6637e3d07c4fcec16ca46572","","","[0,1]","left","[0,2]","0","3321.7000000178814","1","998.0999999940395"
"","","","","","jsShapes","11","110887","0.0-3.0-0.8","66379be77a6207483b19502d","62fb88be841f0dcba3db01ff","6637e3d07c4fcec16ca46572","","","[0,1]","right","[1,0]","0","2769.699999988079","1","1209.1000000238419"
"","","","","","jsShapes","12","116853","0.0-3.0-0.9","66379be77a6207483b19502d","62fb88be841f0dcba3db01ff","6637e3d07c4fcec16ca46572","","","[1,3]","left","[0,1]","1","4358.9000000059605","0.9933333333333333","1594.2000000178814"
"","","","","","jsShapes","13","120055","0.0-3.0-0.10","66379be77a6207483b19502d","62fb88be841f0dcba3db01ff","6637e3d07c4fcec16ca46572","","","[0,1]","left","[3,0]","1","2364.5999999940395","0.9933333333333333","830.9000000059605"
"","","","","","jsShapes","14","124853","0.0-3.0-0.11","66379be77a6207483b19502d","62fb88be841f0dcba3db01ff","6637e3d07c4fcec16ca46572","","","[2,4]","right","[4,1]","0","3878.4000000059605","1","917"
"","","","","","jsShapes","15","127738","0.0-3.0-0.12","66379be77a6207483b19502d","62fb88be841f0dcba3db01ff","6637e3d07c4fcec16ca46572","","","[0,1]","right","[4,1]","1","2136.199999988079","1","733.9000000059605"
"","","","","","jsShapes","16","130620","0.0-3.0-0.13","66379be77a6207483b19502d","62fb88be841f0dcba3db01ff","6637e3d07c4fcec16ca46572","","","[0,1]","left","[0,3]","0","2086","1","791.5"
"","","","","","jsShapes","17","135170","0.0-3.0-0.14","66379be77a6207483b19502d","62fb88be841f0dcba3db01ff","6637e3d07c4fcec16ca46572","","","[4,2]","left","[0,4]","1","3725.699999988079","1","810.1000000238419"
"","","","","","jsShapes","18","138371","0.0-3.0-0.15","66379be77a6207483b19502d","62fb88be841f0dcba3db01ff","6637e3d07c4fcec16ca46572","","","[2,0]","right","[1,2]","1","2506.0999999940395","1","689.1999999880791"
"","","","","","survey-text","19","146469","0.0-4.0","66379be77a6207483b19502d","62fb88be841f0dcba3db01ff","6637e3d07c4fcec16ca46572","8090","","","","","{""worker_comments"":""""}","","",""
"","","","","","instructions","20","148427","0.0-5.0","66379be77a6207483b19502d","62fb88be841f0dcba3db01ff","6637e3d07c4fcec16ca46572","1957","[{""page_index"":0,""viewing_time"":1956}]","","","","","","",""
"success","timeout","failed_images","failed_audio","failed_video","trial_type","trial_index","time_elapsed","internal_node_id","STUDY_ID","PROLIFIC_PID","SESSION_ID","rt","view_history","shapes","occluder","options","response","RT","confidence","confidence_RT"
"true","false","[]","[]","[]","preload","0","139","0.0-0.0","66379be77a6207483b19502d","6100532c7908d47c93f60c5e","6637e3d1b379c935048d0787","","","","","","","","",""
"true","","","","","fullscreen","1","4947","0.0-1.0","66379be77a6207483b19502d","6100532c7908d47c93f60c5e","6637e3d1b379c935048d0787","3801","","","","","","","",""
"","","","","","instructions","2","37791","0.0-2.0","66379be77a6207483b19502d","6100532c7908d47c93f60c5e","6637e3d1b379c935048d0787","32845","[{""page_index"":0,""viewing_time"":2925},{""page_index"":1,""viewing_time"":18914},{""page_index"":2,""viewing_time"":8656},{""page_index"":3,""viewing_time"":1498},{""page_index"":4,""viewing_time"":851}]","","","","","","",""
"","","","","","jsShapes","3","44435","0.0-3.0-0.0","66379be77a6207483b19502d","6100532c7908d47c93f60c5e","6637e3d1b379c935048d0787","","","[0,1]","right","[1,0]","0","4197","1","2427"
"","","","","","jsShapes","4","50801","0.0-3.0-0.1","66379be77a6207483b19502d","6100532c7908d47c93f60c5e","6637e3d1b379c935048d0787","","","[3,2]","left","[0,2]","1","4172","0.9977777777777778","2184"
"","","","","","jsShapes","5","55035","0.0-3.0-0.2","66379be77a6207483b19502d","6100532c7908d47c93f60c5e","6637e3d1b379c935048d0787","","","[0,1]","left","[3,0]","1","2455","0.9844444444444445","1767"
"","","","","","jsShapes","6","64251","0.0-3.0-0.3","66379be77a6207483b19502d","6100532c7908d47c93f60c5e","6637e3d1b379c935048d0787","","","[2,3]","right","[1,0]","1","7256","0.0022222222222222365","1951"
"","","","","","jsShapes","7","73485","0.0-3.0-0.4","66379be77a6207483b19502d","6100532c7908d47c93f60c5e","6637e3d1b379c935048d0787","","","[1,2]","right","[1,2]","1","7656","0.01777777777777778","1567"
"","","","","","jsShapes","8","77434","0.0-3.0-0.5","66379be77a6207483b19502d","6100532c7908d47c93f60c5e","6637e3d1b379c935048d0787","","","[0,1]","right","[0,1]","1","2463","0.9977777777777778","1476"
"","","","","","jsShapes","9","83418","0.0-3.0-0.6","66379be77a6207483b19502d","6100532c7908d47c93f60c5e","6637e3d1b379c935048d0787","","","[4,3]","left","[2,0]","0","4755.000000000015","1","1217.9999999999854"
"","","","","","jsShapes","10","86568","0.0-3.0-0.7","66379be77a6207483b19502d","6100532c7908d47c93f60c5e","6637e3d1b379c935048d0787","","","[0,1]","left","[1,0]","1","2184","1","956"
"","","","","","jsShapes","11","91584","0.0-3.0-0.8","66379be77a6207483b19502d","6100532c7908d47c93f60c5e","6637e3d1b379c935048d0787","","","[1,0]","left","[0,2]","1","3992","0.013333333333333308","1014"
"","","","","","jsShapes","12","95084","0.0-3.0-0.9","66379be77a6207483b19502d","6100532c7908d47c93f60c5e","6637e3d1b379c935048d0787","","","[0,1]","left","[0,3]","0","2256","1","1234"
"","","","","","jsShapes","13","99618","0.0-3.0-0.10","66379be77a6207483b19502d","6100532c7908d47c93f60c5e","6637e3d1b379c935048d0787","","","[3,2]","right","[1,4]","1","2527.9999999999854","0.07111111111111112","1997"
"","","","","","jsShapes","14","102418","0.0-3.0-0.11","66379be77a6207483b19502d","6100532c7908d47c93f60c5e","6637e3d1b379c935048d0787","","","[0,1]","right","[2,1]","1","1961","1","829"
"","","","","","jsShapes","15","107834","0.0-3.0-0.12","66379be77a6207483b19502d","6100532c7908d47c93f60c5e","6637e3d1b379c935048d0787","","","[2,2]","right","[3,1]","0","3967","0.9888888888888889","1442"
"","","","","","jsShapes","16","115901","0.0-3.0-0.13","66379be77a6207483b19502d","6100532c7908d47c93f60c5e","6637e3d1b379c935048d0787","","","[4,4]","left","[0,1]","1","6988.999999999985","0.9777777777777777","1068"
"","","","","","jsShapes","17","119218","0.0-3.0-0.14","66379be77a6207483b19502d","6100532c7908d47c93f60c5e","6637e3d1b379c935048d0787","","","[0,1]","right","[1,4]","0","2367","1","940"
"","","","","","jsShapes","18","122184","0.0-3.0-0.15","66379be77a6207483b19502d","6100532c7908d47c93f60c5e","6637e3d1b379c935048d0787","","","[0,1]","left","[1,0]","1","1959.9999999999854","1","996"
"","","","","","survey-text","19","126710","0.0-4.0","66379be77a6207483b19502d","6100532c7908d47c93f60c5e","6637e3d1b379c935048d0787","4524","","","","","{""worker_comments"":""""}","","",""
"","","","","","instructions","20","129100","0.0-5.0","66379be77a6207483b19502d","6100532c7908d47c93f60c5e","6637e3d1b379c935048d0787","2390","[{""page_index"":0,""viewing_time"":2390}]","","","","","","",""
"success","timeout","failed_images","failed_audio","failed_video","trial_type","trial_index","time_elapsed","internal_node_id","STUDY_ID","PROLIFIC_PID","SESSION_ID","rt","view_history","shapes","occluder","options","response","RT","confidence","confidence_RT"
"true","false","[]","[]","[]","preload","0","59","0.0-0.0","66379be77a6207483b19502d","65aa885fd9617a14cd78a826","6637e3d1c63d0064f3ed4916","","","","","","","","",""
"true","","","","","fullscreen","1","4999","0.0-1.0","66379be77a6207483b19502d","65aa885fd9617a14cd78a826","6637e3d1c63d0064f3ed4916","3935","","","","","","","",""
"","","","","","instructions","2","48379","0.0-2.0","66379be77a6207483b19502d","65aa885fd9617a14cd78a826","6637e3d1c63d0064f3ed4916","43379","[{""page_index"":0,""viewing_time"":6622},{""page_index"":1,""viewing_time"":22739},{""page_index"":2,""viewing_time"":9201},{""page_index"":3,""viewing_time"":3597},{""page_index"":4,""viewing_time"":1220}]","","","","","","",""
"","","","","","jsShapes","3","76397","0.0-3.0-0.0","66379be77a6207483b19502d","65aa885fd9617a14cd78a826","6637e3d1c63d0064f3ed4916","","","[3,4]","right","[2,1]","0","23986.700000047684","0.9758771929824561","3976.7999999523163"
"","","","","","jsShapes","4","89923","0.0-3.0-0.1","66379be77a6207483b19502d","65aa885fd9617a14cd78a826","6637e3d1c63d0064f3ed4916","","","[3,4]","left","[1,0]","0","10433.800000190735","0.8793859649122807","3074.899999856949"
"","","","","","jsShapes","5","96510","0.0-3.0-0.2","66379be77a6207483b19502d","65aa885fd9617a14cd78a826","6637e3d1c63d0064f3ed4916","","","[0,1]","right","[1,0]","0","4354.5","0.9868421052631579","2217.2999999523163"
"","","","","","jsShapes","6","102947","0.0-3.0-0.3","66379be77a6207483b19502d","65aa885fd9617a14cd78a826","6637e3d1c63d0064f3ed4916","","","[0,1]","left","[0,4]","0","4317.700000047684","0.9517543859649122","2102.5"
"","","","","","jsShapes","7","111621","0.0-3.0-0.4","66379be77a6207483b19502d","65aa885fd9617a14cd78a826","6637e3d1c63d0064f3ed4916","","","[0,1]","left","[0,3]","0","7139.299999952316","1","1515.0999999046326"
"","","","","","jsShapes","8","121410","0.0-3.0-0.5","66379be77a6207483b19502d","65aa885fd9617a14cd78a826","6637e3d1c63d0064f3ed4916","","","[0,1]","right","[2,1]","1","2557.2000000476837","0.9539473684210527","7162.099999904633"
"","","","","","jsShapes","9","130816","0.0-3.0-0.6","66379be77a6207483b19502d","65aa885fd9617a14cd78a826","6637e3d1c63d0064f3ed4916","","","[4,2]","left","[3,0]","1","7421.5","0.868421052631579","1974.2000000476837"
"","","","","","jsShapes","10","141209","0.0-3.0-0.7","66379be77a6207483b19502d","65aa885fd9617a14cd78a826","6637e3d1c63d0064f3ed4916","","","[3,0]","right","[2,1]","0","6840.900000095367","0.7324561403508771","3546.2999999523163"
"","","","","","jsShapes","11","147928","0.0-3.0-0.8","66379be77a6207483b19502d","65aa885fd9617a14cd78a826","6637e3d1c63d0064f3ed4916","","","[0,1]","right","[4,1]","1","2569","0.9671052631578947","4135.200000047684"
"","","","","","jsShapes","12","153682","0.0-3.0-0.9","66379be77a6207483b19502d","65aa885fd9617a14cd78a826","6637e3d1c63d0064f3ed4916","","","[3,2]","left","[2,0]","1","3470","0.8486842105263158","2271"
"","","","","","jsShapes","13","158686","0.0-3.0-0.10","66379be77a6207483b19502d","65aa885fd9617a14cd78a826","6637e3d1c63d0064f3ed4916","","","[0,1]","left","[0,3]","0","2886.300000190735","0.9407894736842105","2104.199999809265"
"","","","","","jsShapes","14","165658","0.0-3.0-0.11","66379be77a6207483b19502d","65aa885fd9617a14cd78a826","6637e3d1c63d0064f3ed4916","","","[4,3]","right","[2,1]","0","4886.5","0.8969298245614035","2068.100000143051"
"","","","","","jsShapes","15","171929","0.0-3.0-0.12","66379be77a6207483b19502d","65aa885fd9617a14cd78a826","6637e3d1c63d0064f3ed4916","","","[3,4]","right","[1,0]","0","4211.900000095367","0.8706140350877193","2043.9000000953674"
"","","","","","jsShapes","16","177549","0.0-3.0-0.13","66379be77a6207483b19502d","65aa885fd9617a14cd78a826","6637e3d1c63d0064f3ed4916","","","[0,1]","left","[0,3]","0","3401.9000000953674","0.8464912280701754","2209.4000000953674"
"","","","","","jsShapes","17","183053","0.0-3.0-0.14","66379be77a6207483b19502d","65aa885fd9617a14cd78a826","6637e3d1c63d0064f3ed4916","","","[3,2]","left","[2,0]","1","3472.7999999523163","0.8706140350877193","2015.7000000476837"
"","","","","","jsShapes","18","188256","0.0-3.0-0.15","66379be77a6207483b19502d","65aa885fd9617a14cd78a826","6637e3d1c63d0064f3ed4916","","","[0,1]","right","[2,1]","1","2495.7000000476837","0.8333333333333334","2692.9000000953674"
"","","","","","survey-text","19","224633","0.0-4.0","66379be77a6207483b19502d","65aa885fd9617a14cd78a826","6637e3d1c63d0064f3ed4916","36333","","","","","{""worker_comments"":""It was an interesting experiment that involved thinking ""}","","",""
"","","","","","instructions","20","228736","0.0-5.0","66379be77a6207483b19502d","65aa885fd9617a14cd78a826","6637e3d1c63d0064f3ed4916","4100","[{""page_index"":0,""viewing_time"":4100}]","","","","","","",""
"success","timeout","failed_images","failed_audio","failed_video","trial_type","trial_index","time_elapsed","internal_node_id","STUDY_ID","PROLIFIC_PID","SESSION_ID","rt","view_history","shapes","occluder","options","response","RT","confidence","confidence_RT"
"true","false","[]","[]","[]","preload","0","83","0.0-0.0","66379be77a6207483b19502d","612563160add8583de6d675b","6637ca3c89fb6ba1e8195a8e","","","","","","","","",""
"true","","","","","fullscreen","1","4516","0.0-1.0","66379be77a6207483b19502d","612563160add8583de6d675b","6637ca3c89fb6ba1e8195a8e","3429","","","","","","","",""
"","","","","","instructions","2","30386","0.0-2.0","66379be77a6207483b19502d","612563160add8583de6d675b","6637ca3c89fb6ba1e8195a8e","25869","[{""page_index"":0,""viewing_time"":2172},{""page_index"":1,""viewing_time"":13257},{""page_index"":2,""viewing_time"":7634},{""page_index"":3,""viewing_time"":1760},{""page_index"":4,""viewing_time"":1046}]","","","","","","",""
"","","","","","jsShapes","3","37164","0.0-3.0-0.0","66379be77a6207483b19502d","612563160add8583de6d675b","6637ca3c89fb6ba1e8195a8e","","","[0,1]","right","[0,1]","1","4468.999999999996","0.9444444444444444","2291"
"","","","","","jsShapes","4","42997","0.0-3.0-0.1","66379be77a6207483b19502d","612563160add8583de6d675b","6637ca3c89fb6ba1e8195a8e","","","[4,2]","right","[3,1]","0","4334","0.42000000000000004","1479"
"","","","","","jsShapes","5","48129","0.0-3.0-0.2","66379be77a6207483b19502d","612563160add8583de6d675b","6637ca3c89fb6ba1e8195a8e","","","[0,1]","left","[0,4]","0","3684","0.7488888888888889","1428"
"","","","","","jsShapes","6","59647","0.0-3.0-0.3","66379be77a6207483b19502d","612563160add8583de6d675b","6637ca3c89fb6ba1e8195a8e","","","[3,2]","left","[0,1]","0","10282","0","1222"
"","","","","","jsShapes","7","62879","0.0-3.0-0.4","66379be77a6207483b19502d","612563160add8583de6d675b","6637ca3c89fb6ba1e8195a8e","","","[0,1]","left","[0,1]","0","2222","0.8644444444444445","992"
"","","","","","jsShapes","8","69596","0.0-3.0-0.5","66379be77a6207483b19502d","612563160add8583de6d675b","6637ca3c89fb6ba1e8195a8e","","","[4,4]","left","[4,0]","0","4551","0.4933333333333333","2151"
"","","","","","jsShapes","9","73397","0.0-3.0-0.6","66379be77a6207483b19502d","612563160add8583de6d675b","6637ca3c89fb6ba1e8195a8e","","","[0,1]","right","[1,0]","0","2817","1","965"
"","","","","","jsShapes","10","81312","0.0-3.0-0.7","66379be77a6207483b19502d","612563160add8583de6d675b","6637ca3c89fb6ba1e8195a8e","","","[3,2]","right","[2,1]","0","6673","0.2844444444444445","1233"
"","","","","","jsShapes","11","86513","0.0-3.0-0.8","66379be77a6207483b19502d","612563160add8583de6d675b","6637ca3c89fb6ba1e8195a8e","","","[0,1]","right","[1,2]","0","3904","0.9088888888888889","1280"
"","","","","","jsShapes","12","89829","0.0-3.0-0.9","66379be77a6207483b19502d","612563160add8583de6d675b","6637ca3c89fb6ba1e8195a8e","","","[0,1]","left","[0,4]","0","2031","0.8911111111111111","1271"
"","","","","","jsShapes","13","96079","0.0-3.0-0.10","66379be77a6207483b19502d","612563160add8583de6d675b","6637ca3c89fb6ba1e8195a8e","","","[2,0]","right","[1,2]","0","4844","0","1399"
"","","","","","jsShapes","14","100162","0.0-3.0-0.11","66379be77a6207483b19502d","612563160add8583de6d675b","6637ca3c89fb6ba1e8195a8e","","","[4,2]","left","[0,1]","0","2473","0.4733333333333334","1590.0000000000146"
"","","","","","jsShapes","15","103479","0.0-3.0-0.12","66379be77a6207483b19502d","612563160add8583de6d675b","6637ca3c89fb6ba1e8195a8e","","","[0,1]","right","[1,4]","0","2239","0.8044444444444444","1058"
"","","","","","jsShapes","16","111013","0.0-3.0-0.13","66379be77a6207483b19502d","612563160add8583de6d675b","6637ca3c89fb6ba1e8195a8e","","","[1,4]","left","[0,1]","1","5750.999999999985","0.5866666666666667","1766"
"","","","","","jsShapes","17","125646","0.0-3.0-0.14","66379be77a6207483b19502d","612563160add8583de6d675b","6637ca3c89fb6ba1e8195a8e","","","[3,2]","right","[4,1]","0","12250","0.15111111111111108","2373.0000000000146"
"","","","","","jsShapes","18","129563","0.0-3.0-0.15","66379be77a6207483b19502d","612563160add8583de6d675b","6637ca3c89fb6ba1e8195a8e","","","[0,1]","left","[1,0]","1","2392","0.8622222222222222","1507"
"","","","","","survey-text","19","131878","0.0-4.0","66379be77a6207483b19502d","612563160add8583de6d675b","6637ca3c89fb6ba1e8195a8e","2312","","","","","{""worker_comments"":""""}","","",""
"","","","","","instructions","20","135027","0.0-5.0","66379be77a6207483b19502d","612563160add8583de6d675b","6637ca3c89fb6ba1e8195a8e","3149","[{""page_index"":0,""viewing_time"":3148}]","","","","","","",""
"success","timeout","failed_images","failed_audio","failed_video","trial_type","trial_index","time_elapsed","internal_node_id","STUDY_ID","PROLIFIC_PID","SESSION_ID","rt","view_history","shapes","occluder","options","response","RT","confidence","confidence_RT"
"true","false","[]","[]","[]","preload","0","192","0.0-0.0","66379be77a6207483b19502d","61719bfec06e3136189edb55","6637e3db6fbc7854a4597402","","","","","","","","",""
"true","","","","","fullscreen","1","3752","0.0-1.0","66379be77a6207483b19502d","61719bfec06e3136189edb55","6637e3db6fbc7854a4597402","2556","","","","","","","",""
"","","","","","instructions","2","28902","0.0-2.0","66379be77a6207483b19502d","61719bfec06e3136189edb55","6637e3db6fbc7854a4597402","25144","[{""page_index"":0,""viewing_time"":3888},{""page_index"":1,""viewing_time"":8429},{""page_index"":2,""viewing_time"":9921},{""page_index"":3,""viewing_time"":1585},{""page_index"":4,""viewing_time"":1321}]","","","","","","",""
"","","","","","jsShapes","3","43141","0.0-3.0-0.0","66379be77a6207483b19502d","61719bfec06e3136189edb55","6637e3db6fbc7854a4597402","","","[0,1]","left","[2,0]","1","6849.5","1","7368.399999999441"
"","","","","","jsShapes","4","53712","0.0-3.0-0.1","66379be77a6207483b19502d","61719bfec06e3136189edb55","6637e3db6fbc7854a4597402","","","[1,4]","left","[0,2]","1","8005.5999999996275","1","2558.100000000559"
"","","","","","jsShapes","5","60265","0.0-3.0-0.2","66379be77a6207483b19502d","61719bfec06e3136189edb55","6637e3db6fbc7854a4597402","","","[0,1]","right","[1,0]","0","4469","1","2065.9000000003725"
"","","","","","jsShapes","6","75322","0.0-3.0-0.3","66379be77a6207483b19502d","61719bfec06e3136189edb55","6637e3db6fbc7854a4597402","","","[1,0]","right","[1,4]","1","12579.600000000559","0.078125","2464.0999999996275"
"","","","","","jsShapes","7","82008","0.0-3.0-0.4","66379be77a6207483b19502d","61719bfec06e3136189edb55","6637e3db6fbc7854a4597402","","","[0,1]","right","[1,0]","0","4646","1","2024.7999999998137"
"","","","","","jsShapes","8","86961","0.0-3.0-0.5","66379be77a6207483b19502d","61719bfec06e3136189edb55","6637e3db6fbc7854a4597402","","","[1,0]","left","[3,0]","0","3884","0","1066.4000000003725"
"","","","","","jsShapes","9","94447","0.0-3.0-0.6","66379be77a6207483b19502d","61719bfec06e3136189edb55","6637e3db6fbc7854a4597402","","","[3,4]","right","[3,1]","0","5337.399999999441","0.13541666666666663","2139.600000000559"
"","","","","","jsShapes","10","99315","0.0-3.0-0.7","66379be77a6207483b19502d","61719bfec06e3136189edb55","6637e3db6fbc7854a4597402","","","[0,1]","left","[0,4]","0","2452","1","2402.199999999255"
"","","","","","jsShapes","11","106185","0.0-3.0-0.8","66379be77a6207483b19502d","61719bfec06e3136189edb55","6637e3db6fbc7854a4597402","","","[0,1]","left","[0,1]","0","4823.799999998882","0.33333333333333337","2038.300000000745"
"","","","","","jsShapes","12","113472","0.0-3.0-0.9","66379be77a6207483b19502d","61719bfec06e3136189edb55","6637e3db6fbc7854a4597402","","","[4,3]","left","[3,0]","0","5412.4000000003725","1","1857.5"
"","","","","","jsShapes","13","118190","0.0-3.0-0.10","66379be77a6207483b19502d","61719bfec06e3136189edb55","6637e3db6fbc7854a4597402","","","[0,1]","right","[2,1]","1","3092.800000000745","0.9947916666666666","1612.5999999996275"
"","","","","","jsShapes","14","122876","0.0-3.0-0.11","66379be77a6207483b19502d","61719bfec06e3136189edb55","6637e3db6fbc7854a4597402","","","[1,2]","right","[1,2]","1","3080.5","0.15625","1591.4000000003725"
"","","","","","jsShapes","15","129079","0.0-3.0-0.12","66379be77a6207483b19502d","61719bfec06e3136189edb55","6637e3db6fbc7854a4597402","","","[1,4]","left","[3,0]","0","4369.5","0.9817708333333334","1815.5"
"","","","","","jsShapes","16","134565","0.0-3.0-0.13","66379be77a6207483b19502d","61719bfec06e3136189edb55","6637e3db6fbc7854a4597402","","","[4,4]","right","[2,1]","0","4294.5","0.1484375","1177.5"
"","","","","","jsShapes","17","139083","0.0-3.0-0.14","66379be77a6207483b19502d","61719bfec06e3136189edb55","6637e3db6fbc7854a4597402","","","[0,1]","right","[0,1]","1","2266.199999999255","1","2241.5"
"","","","","","jsShapes","18","143335","0.0-3.0-0.15","66379be77a6207483b19502d","61719bfec06e3136189edb55","6637e3db6fbc7854a4597402","","","[0,1]","left","[0,1]","0","2659.39999999851","0.5078125","1579.4000000003725"
"","","","","","survey-text","19","191068","0.0-4.0","66379be77a6207483b19502d","61719bfec06e3136189edb55","6637e3db6fbc7854a4597402","47713","","","","","{""worker_comments"":""Had to take into account that if the circle was on the left, the shape on the left would be a triangle, but that didn't necessarily mean if the one on the right was a triangle that the left had to be a circle. Changed my certainty when that smacked me in the head.""}","","",""
"","","","","","instructions","20","193163","0.0-5.0","66379be77a6207483b19502d","61719bfec06e3136189edb55","6637e3db6fbc7854a4597402","2093","[{""page_index"":0,""viewing_time"":2093}]","","","","","","",""
"success","timeout","failed_images","failed_audio","failed_video","trial_type","trial_index","time_elapsed","internal_node_id","STUDY_ID","PROLIFIC_PID","SESSION_ID","rt","view_history","shapes","occluder","options","response","RT","confidence","confidence_RT"
"true","false","[]","[]","[]","preload","0","66","0.0-0.0","66379be77a6207483b19502d","62aca0c04112eee39f60f66b","6637e3d7b379c935048d078a","","","","","","","","",""
"true","","","","","fullscreen","1","7217","0.0-1.0","66379be77a6207483b19502d","62aca0c04112eee39f60f66b","6637e3d7b379c935048d078a","6133","","","","","","","",""
"","","","","","instructions","2","56565","0.0-2.0","66379be77a6207483b19502d","62aca0c04112eee39f60f66b","6637e3d7b379c935048d078a","49346","[{""page_index"":0,""viewing_time"":6158},{""page_index"":1,""viewing_time"":24838},{""page_index"":2,""viewing_time"":13652},{""page_index"":3,""viewing_time"":3167},{""page_index"":4,""viewing_time"":1530}]","","","","","","",""
"","","","","","jsShapes","3","69424","0.0-3.0-0.0","66379be77a6207483b19502d","62aca0c04112eee39f60f66b","6637e3d7b379c935048d078a","","","[0,1]","left","[4,0]","1","8821.200000047684","1","4011.399999856949"
"","","","","","jsShapes","4","78939","0.0-3.0-0.1","66379be77a6207483b19502d","62aca0c04112eee39f60f66b","6637e3d7b379c935048d078a","","","[4,2]","left","[2,0]","0","7071.299999952316","0.4652777777777778","2431.5"
"","","","","","jsShapes","5","86590","0.0-3.0-0.2","66379be77a6207483b19502d","62aca0c04112eee39f60f66b","6637e3d7b379c935048d078a","","","[2,3]","right","[1,3]","0","5419.799999952316","0.5462962962962963","2220.7000000476837"
"","","","","","jsShapes","6","92891","0.0-3.0-0.3","66379be77a6207483b19502d","62aca0c04112eee39f60f66b","6637e3d7b379c935048d078a","","","[0,1]","right","[1,0]","0","4102.700000047684","1","2184.4000000953674"
"","","","","","jsShapes","7","100158","0.0-3.0-0.4","66379be77a6207483b19502d","62aca0c04112eee39f60f66b","6637e3d7b379c935048d078a","","","[4,0]","right","[4,1]","1","5075.700000047684","0.49768518518518523","2174.199999809265"
"","","","","","jsShapes","8","104875","0.0-3.0-0.5","66379be77a6207483b19502d","62aca0c04112eee39f60f66b","6637e3d7b379c935048d078a","","","[0,1]","left","[1,0]","1","3018.5","1","1682.5"
"","","","","","jsShapes","9","111108","0.0-3.0-0.6","66379be77a6207483b19502d","62aca0c04112eee39f60f66b","6637e3d7b379c935048d078a","","","[4,3]","left","[0,3]","1","4276.400000095367","0.47916666666666663","1940.7999999523163"
"","","","","","jsShapes","10","115658","0.0-3.0-0.7","66379be77a6207483b19502d","62aca0c04112eee39f60f66b","6637e3d7b379c935048d078a","","","[0,1]","right","[2,1]","1","2835.7999999523163","1","1699.3000001907349"
"","","","","","jsShapes","11","122226","0.0-3.0-0.8","66379be77a6207483b19502d","62aca0c04112eee39f60f66b","6637e3d7b379c935048d078a","","","[3,0]","left","[0,3]","1","4244.399999856949","0.5208333333333333","2307.5"
"","","","","","jsShapes","12","127710","0.0-3.0-0.9","66379be77a6207483b19502d","62aca0c04112eee39f60f66b","6637e3d7b379c935048d078a","","","[4,4]","right","[3,1]","1","3574.5","0.5069444444444444","1897.1000001430511"
"","","","","","jsShapes","13","133344","0.0-3.0-0.10","66379be77a6207483b19502d","62aca0c04112eee39f60f66b","6637e3d7b379c935048d078a","","","[0,1]","right","[4,1]","1","3612.5999999046326","1","2009.4000000953674"
"","","","","","jsShapes","14","137610","0.0-3.0-0.11","66379be77a6207483b19502d","62aca0c04112eee39f60f66b","6637e3d7b379c935048d078a","","","[0,1]","left","[0,3]","0","2892.7999999523163","1","1357"
"","","","","","jsShapes","15","142878","0.0-3.0-0.12","66379be77a6207483b19502d","62aca0c04112eee39f60f66b","6637e3d7b379c935048d078a","","","[1,4]","left","[2,0]","0","2979.199999809265","0.5347222222222222","2278.7000000476837"
"","","","","","jsShapes","16","146977","0.0-3.0-0.13","66379be77a6207483b19502d","62aca0c04112eee39f60f66b","6637e3d7b379c935048d078a","","","[2,2]","right","[1,3]","1","2685.4000000953674","0.5208333333333333","1403.3999998569489"
"","","","","","jsShapes","17","151111","0.0-3.0-0.14","66379be77a6207483b19502d","62aca0c04112eee39f60f66b","6637e3d7b379c935048d078a","","","[0,1]","right","[1,3]","0","2460.399999856949","1","1656.7000000476837"
"","","","","","jsShapes","18","155278","0.0-3.0-0.15","66379be77a6207483b19502d","62aca0c04112eee39f60f66b","6637e3d7b379c935048d078a","","","[0,1]","left","[3,0]","1","2695.5999999046326","1","1456"
"","","","","","survey-text","19","184923","0.0-4.0","66379be77a6207483b19502d","62aca0c04112eee39f60f66b","6637e3d7b379c935048d078a","29631","","","","","{""worker_comments"":""Apart from the one rule I couldn't fathom any of rules""}","","",""
"","","","","","instructions","20","189029","0.0-5.0","66379be77a6207483b19502d","62aca0c04112eee39f60f66b","6637e3d7b379c935048d078a","4102","[{""page_index"":0,""viewing_time"":4102}]","","","","","","",""
"success","timeout","failed_images","failed_audio","failed_video","trial_type","trial_index","time_elapsed","internal_node_id","STUDY_ID","PROLIFIC_PID","SESSION_ID","rt","view_history","shapes","occluder","options","response","RT","confidence","confidence_RT"
"true","false","[]","[]","[]","preload","0","78","0.0-0.0","66379be77a6207483b19502d","605cdb775245fd037b89ce7b","6637e3e016bb7b2583bd75a4","","","","","","","","",""
"true","","","","","fullscreen","1","3355","0.0-1.0","66379be77a6207483b19502d","605cdb775245fd037b89ce7b","6637e3e016bb7b2583bd75a4","2275","","","","","","","",""
"","","","","","instructions","2","147908","0.0-2.0","66379be77a6207483b19502d","605cdb775245fd037b89ce7b","6637e3e016bb7b2583bd75a4","144546","[{""page_index"":0,""viewing_time"":4317},{""page_index"":1,""viewing_time"":20211},{""page_index"":2,""viewing_time"":104107},{""page_index"":3,""viewing_time"":9480},{""page_index"":4,""viewing_time"":6431}]","","","","","","",""
"","","","","","jsShapes","3","165403","0.0-3.0-0.0","66379be77a6207483b19502d","605cdb775245fd037b89ce7b","6637e3e016bb7b2583bd75a4","","","[2,4]","left","[0,2]","1","13421.5","0.4941520467836257","4009.8000000044703"
"","","","","","jsShapes","4","170451","0.0-3.0-0.1","66379be77a6207483b19502d","605cdb775245fd037b89ce7b","6637e3e016bb7b2583bd75a4","","","[0,1]","left","[0,4]","0","3406.5","1","1625.6000000014901"
"","","","","","jsShapes","5","175331","0.0-3.0-0.2","66379be77a6207483b19502d","605cdb775245fd037b89ce7b","6637e3e016bb7b2583bd75a4","","","[1,3]","right","[2,1]","0","3468.6999999955297","0.3450292397660819","1381.8999999985099"
"","","","","","jsShapes","6","178474","0.0-3.0-0.3","66379be77a6207483b19502d","605cdb775245fd037b89ce7b","6637e3e016bb7b2583bd75a4","","","[0,1]","right","[3,1]","0","2151.8000000044703","0.3157894736842105","977.5999999940395"
"","","","","","jsShapes","7","185093","0.0-3.0-0.4","66379be77a6207483b19502d","605cdb775245fd037b89ce7b","6637e3e016bb7b2583bd75a4","","","[0,1]","left","[0,1]","0","5260.89999999851","1","1342.8999999985099"
"","","","","","jsShapes","8","192782","0.0-3.0-0.5","66379be77a6207483b19502d","605cdb775245fd037b89ce7b","6637e3e016bb7b2583bd75a4","","","[2,4]","right","[1,4]","1","6608.19999999553","0.6169590643274854","1048.1000000014901"
"","","","","","jsShapes","9","201337","0.0-3.0-0.6","66379be77a6207483b19502d","605cdb775245fd037b89ce7b","6637e3e016bb7b2583bd75a4","","","[0,1]","right","[1,0]","0","6550.10000000149","0","1976"
"","","","","","jsShapes","10","208056","0.0-3.0-0.7","66379be77a6207483b19502d","605cdb775245fd037b89ce7b","6637e3e016bb7b2583bd75a4","","","[2,2]","left","[4,0]","0","5640.60000000149","1","1067.2000000029802"
"","","","","","jsShapes","11","211732","0.0-3.0-0.8","66379be77a6207483b19502d","605cdb775245fd037b89ce7b","6637e3e016bb7b2583bd75a4","","","[0,1]","right","[1,3]","0","2362.10000000149","1","1303"
"","","","","","jsShapes","12","216445","0.0-3.0-0.9","66379be77a6207483b19502d","605cdb775245fd037b89ce7b","6637e3e016bb7b2583bd75a4","","","[1,4]","right","[0,1]","0","3201.60000000149","0.14619883040935677","1500.6999999955297"
"","","","","","jsShapes","13","222561","0.0-3.0-0.10","66379be77a6207483b19502d","605cdb775245fd037b89ce7b","6637e3e016bb7b2583bd75a4","","","[3,3]","left","[4,0]","0","5168.89999999851","0.7339181286549707","920.1999999955297"
"","","","","","jsShapes","14","226473","0.0-3.0-0.11","66379be77a6207483b19502d","605cdb775245fd037b89ce7b","6637e3e016bb7b2583bd75a4","","","[0,1]","left","[2,0]","1","2870.60000000149","0.827485380116959","1029.6999999955297"
"","","","","","jsShapes","15","229514","0.0-3.0-0.12","66379be77a6207483b19502d","605cdb775245fd037b89ce7b","6637e3e016bb7b2583bd75a4","","","[0,1]","right","[1,3]","0","2118.10000000149","0.8450292397660819","895.5"
"","","","","","jsShapes","16","238873","0.0-3.0-0.13","66379be77a6207483b19502d","605cdb775245fd037b89ce7b","6637e3e016bb7b2583bd75a4","","","[3,3]","left","[0,1]","1","8597.5","0.8421052631578947","750.1000000014901"
"","","","","","jsShapes","17","241246","0.0-3.0-0.14","66379be77a6207483b19502d","605cdb775245fd037b89ce7b","6637e3e016bb7b2583bd75a4","","","[0,1]","left","[0,2]","0","1666.7000000029802","0.8421052631578947","694.1000000014901"
"","","","","","jsShapes","18","247730","0.0-3.0-0.15","66379be77a6207483b19502d","605cdb775245fd037b89ce7b","6637e3e016bb7b2583bd75a4","","","[4,4]","right","[1,0]","0","3616.2000000029802","0.32748538011695905","2856"
"","","","","","survey-text","19","255628","0.0-4.0","66379be77a6207483b19502d","605cdb775245fd037b89ce7b","6637e3e016bb7b2583bd75a4","7887","","","","","{""worker_comments"":""""}","","",""
"","","","","","instructions","20","259918","0.0-5.0","66379be77a6207483b19502d","605cdb775245fd037b89ce7b","6637e3e016bb7b2583bd75a4","4288","[{""page_index"":0,""viewing_time"":4288}]","","","","","","",""
"success","timeout","failed_images","failed_audio","failed_video","trial_type","trial_index","time_elapsed","internal_node_id","STUDY_ID","PROLIFIC_PID","SESSION_ID","rt","view_history","shapes","occluder","options","response","RT","confidence","confidence_RT"
"true","false","[]","[]","[]","preload","0","57","0.0-0.0","66379be77a6207483b19502d","55d39f64da14d7001295375a","6637ca9aede56b69e643f741","","","","","","","","",""
"true","","","","","fullscreen","1","2614","0.0-1.0","66379be77a6207483b19502d","55d39f64da14d7001295375a","6637ca9aede56b69e643f741","1552","","","","","","","",""
"","","","","","instructions","2","31647","0.0-2.0","66379be77a6207483b19502d","55d39f64da14d7001295375a","6637ca9aede56b69e643f741","29033","[{""page_index"":0,""viewing_time"":3809},{""page_index"":1,""viewing_time"":17423},{""page_index"":2,""viewing_time"":5400},{""page_index"":3,""viewing_time"":1632},{""page_index"":4,""viewing_time"":768}]","","","","","","",""
"","","","","","jsShapes","3","46295","0.0-3.0-0.0","66379be77a6207483b19502d","55d39f64da14d7001295375a","6637ca9aede56b69e643f741","","","[4,4]","right","[0,1]","0","6907.799999952316","0.5333333333333333","7712.400000035763"
"","","","","","jsShapes","4","53961","0.0-3.0-0.1","66379be77a6207483b19502d","55d39f64da14d7001295375a","6637ca9aede56b69e643f741","","","[3,0]","left","[0,1]","1","6257.199999988079","0","1393.2000000476837"
"","","","","","jsShapes","5","58609","0.0-3.0-0.2","66379be77a6207483b19502d","55d39f64da14d7001295375a","6637ca9aede56b69e643f741","","","[0,1]","right","[1,0]","0","3269.2999999523163","1","1364.300000011921"
"","","","","","jsShapes","6","66741","0.0-3.0-0.3","66379be77a6207483b19502d","55d39f64da14d7001295375a","6637ca9aede56b69e643f741","","","[0,1]","left","[0,3]","0","4499.300000011921","0.987037037037037","3615.5"
"","","","","","jsShapes","7","73639","0.0-3.0-0.4","66379be77a6207483b19502d","55d39f64da14d7001295375a","6637ca9aede56b69e643f741","","","[0,1]","left","[3,0]","1","5952.100000023842","0.7888888888888889","930.7999999523163"
"","","","","","jsShapes","8","78210","0.0-3.0-0.5","66379be77a6207483b19502d","55d39f64da14d7001295375a","6637ca9aede56b69e643f741","","","[1,2]","right","[0,1]","0","3117","0","1430.5999999642372"
"","","","","","jsShapes","9","82022","0.0-3.0-0.6","66379be77a6207483b19502d","55d39f64da14d7001295375a","6637ca9aede56b69e643f741","","","[4,2]","left","[2,0]","1","2733.300000011921","0","1064.699999988079"
"","","","","","jsShapes","10","85507","0.0-3.0-0.7","66379be77a6207483b19502d","55d39f64da14d7001295375a","6637ca9aede56b69e643f741","","","[0,1]","right","[1,3]","0","2400.399999976158","1","1067.699999988079"
"","","","","","jsShapes","11","89355","0.0-3.0-0.8","66379be77a6207483b19502d","55d39f64da14d7001295375a","6637ca9aede56b69e643f741","","","[3,0]","right","[4,1]","1","2785.399999976158","0","1046"
"","","","","","jsShapes","12","95471","0.0-3.0-0.9","66379be77a6207483b19502d","55d39f64da14d7001295375a","6637ca9aede56b69e643f741","","","[0,1]","left","[0,2]","0","4816.200000047684","0.32407407407407407","1283"
"","","","","","jsShapes","13","99487","0.0-3.0-0.10","66379be77a6207483b19502d","55d39f64da14d7001295375a","6637ca9aede56b69e643f741","","","[2,4]","left","[0,3]","1","2486.100000023842","0","1515.8999999761581"
"","","","","","jsShapes","14","102755","0.0-3.0-0.11","66379be77a6207483b19502d","55d39f64da14d7001295375a","6637ca9aede56b69e643f741","","","[0,1]","right","[2,1]","1","2190.800000011921","1","1058.3999999761581"
"","","","","","jsShapes","15","107075","0.0-3.0-0.12","66379be77a6207483b19502d","55d39f64da14d7001295375a","6637ca9aede56b69e643f741","","","[1,0]","left","[4,0]","0","3284.2000000476837","0","1013.6999999880791"
"","","","","","jsShapes","16","111602","0.0-3.0-0.13","66379be77a6207483b19502d","55d39f64da14d7001295375a","6637ca9aede56b69e643f741","","","[0,1]","left","[0,3]","0","3514.899999976158","0.7481481481481482","999.9000000357628"
"","","","","","jsShapes","17","115668","0.0-3.0-0.14","66379be77a6207483b19502d","55d39f64da14d7001295375a","6637ca9aede56b69e643f741","","","[0,1]","right","[4,1]","1","2768.800000011921","1","1279.5"
"","","","","","jsShapes","18","119868","0.0-3.0-0.15","66379be77a6207483b19502d","55d39f64da14d7001295375a","6637ca9aede56b69e643f741","","","[2,3]","right","[3,1]","0","2992.5","0","1193.300000011921"
"","","","","","survey-text","19","121436","0.0-4.0","66379be77a6207483b19502d","55d39f64da14d7001295375a","6637ca9aede56b69e643f741","1557","","","","","{""worker_comments"":""""}","","",""
"","","","","","instructions","20","123663","0.0-5.0","66379be77a6207483b19502d","55d39f64da14d7001295375a","6637ca9aede56b69e643f741","2226","[{""page_index"":0,""viewing_time"":2226}]","","","","","","",""
"success","timeout","failed_images","failed_audio","failed_video","trial_type","trial_index","time_elapsed","internal_node_id","STUDY_ID","PROLIFIC_PID","SESSION_ID","rt","view_history","shapes","occluder","options","response","RT","confidence","confidence_RT"
"true","false","[]","[]","[]","preload","0","140","0.0-0.0","66379be77a6207483b19502d","5c492e3e4c3dc50001fbdb20","6637e3e73f0b865e66358d40","","","","","","","","",""
"true","","","","","fullscreen","1","3116","0.0-1.0","66379be77a6207483b19502d","5c492e3e4c3dc50001fbdb20","6637e3e73f0b865e66358d40","1973","","","","","","","",""
"","","","","","instructions","2","22077","0.0-2.0","66379be77a6207483b19502d","5c492e3e4c3dc50001fbdb20","6637e3e73f0b865e66358d40","18960","[{""page_index"":0,""viewing_time"":2902},{""page_index"":1,""viewing_time"":8938},{""page_index"":2,""viewing_time"":4432},{""page_index"":3,""viewing_time"":1586},{""page_index"":4,""viewing_time"":1103}]","","","","","","",""
"","","","","","jsShapes","3","37390","0.0-3.0-0.0","66379be77a6207483b19502d","5c492e3e4c3dc50001fbdb20","6637e3e73f0b865e66358d40","","","[0,1]","left","[2,0]","1","12352.300000011921","0.46111111111111114","2944"
"","","","","","jsShapes","4","43635","0.0-3.0-0.1","66379be77a6207483b19502d","5c492e3e4c3dc50001fbdb20","6637e3e73f0b865e66358d40","","","[4,4]","left","[3,0]","0","4809.700000047684","0.03888888888888886","1418.2999999523163"
"","","","","","jsShapes","5","49091","0.0-3.0-0.2","66379be77a6207483b19502d","5c492e3e4c3dc50001fbdb20","6637e3e73f0b865e66358d40","","","[2,2]","right","[1,4]","1","4209.599999964237","0.09999999999999998","1226.4000000357628"
"","","","","","jsShapes","6","55591","0.0-3.0-0.3","66379be77a6207483b19502d","5c492e3e4c3dc50001fbdb20","6637e3e73f0b865e66358d40","","","[0,1]","right","[1,4]","0","4619.100000023842","0.6111111111111112","1871.5999999642372"
"","","","","","jsShapes","7","62911","0.0-3.0-0.4","66379be77a6207483b19502d","5c492e3e4c3dc50001fbdb20","6637e3e73f0b865e66358d40","","","[0,1]","right","[1,4]","0","6106.199999988079","0.5148148148148148","1204"
"","","","","","jsShapes","8","68653","0.0-3.0-0.5","66379be77a6207483b19502d","5c492e3e4c3dc50001fbdb20","6637e3e73f0b865e66358d40","","","[0,1]","left","[0,4]","1","4541.799999952316","0.2666666666666667","1185.9000000357628"
"","","","","","jsShapes","9","74523","0.0-3.0-0.6","66379be77a6207483b19502d","5c492e3e4c3dc50001fbdb20","6637e3e73f0b865e66358d40","","","[2,4]","left","[2,0]","0","4863.800000011921","0.28148148148148144","998.8000000119209"
"","","","","","jsShapes","10","79546","0.0-3.0-0.7","66379be77a6207483b19502d","5c492e3e4c3dc50001fbdb20","6637e3e73f0b865e66358d40","","","[2,2]","right","[4,1]","1","3839.399999976158","0.20370370370370372","1164"
"","","","","","jsShapes","11","83841","0.0-3.0-0.8","66379be77a6207483b19502d","5c492e3e4c3dc50001fbdb20","6637e3e73f0b865e66358d40","","","[1,2]","left","[4,0]","0","3266.900000035763","0.23888888888888893","1012.1999999880791"
"","","","","","jsShapes","12","88436","0.0-3.0-0.9","66379be77a6207483b19502d","5c492e3e4c3dc50001fbdb20","6637e3e73f0b865e66358d40","","","[0,1]","left","[0,4]","0","3463.399999976158","0.6574074074074074","1106.5"
"","","","","","jsShapes","13","93686","0.0-3.0-0.10","66379be77a6207483b19502d","5c492e3e4c3dc50001fbdb20","6637e3e73f0b865e66358d40","","","[3,2]","right","[1,0]","0","4275.600000023842","0.07592592592592595","955.5"
"","","","","","jsShapes","14","100194","0.0-3.0-0.11","66379be77a6207483b19502d","5c492e3e4c3dc50001fbdb20","6637e3e73f0b865e66358d40","","","[0,1]","right","[1,3]","0","5333.5","0.787037037037037","1169"
"","","","","","jsShapes","15","105569","0.0-3.0-0.12","66379be77a6207483b19502d","5c492e3e4c3dc50001fbdb20","6637e3e73f0b865e66358d40","","","[0,1]","right","[1,3]","0","3381.300000011921","0.7833333333333333","1975.0999999642372"
"","","","","","jsShapes","16","110536","0.0-3.0-0.13","66379be77a6207483b19502d","5c492e3e4c3dc50001fbdb20","6637e3e73f0b865e66358d40","","","[3,2]","right","[1,2]","0","4042.199999988079","0.07777777777777772","913.3999999761581"
"","","","","","jsShapes","17","115579","0.0-3.0-0.14","66379be77a6207483b19502d","5c492e3e4c3dc50001fbdb20","6637e3e73f0b865e66358d40","","","[2,2]","left","[4,0]","1","3914.899999976158","0.17222222222222228","1106.5"
"","","","","","jsShapes","18","120091","0.0-3.0-0.15","66379be77a6207483b19502d","5c492e3e4c3dc50001fbdb20","6637e3e73f0b865e66358d40","","","[0,1]","left","[0,4]","0","3125.400000035763","0.5407407407407407","1373.300000011921"
"","","","","","survey-text","19","146383","0.0-4.0","66379be77a6207483b19502d","5c492e3e4c3dc50001fbdb20","6637e3e73f0b865e66358d40","26288","","","","","{""worker_comments"":""I saw some where the rules did not match what I saw. ""}","","",""
"","","","","","instructions","20","149436","0.0-5.0","66379be77a6207483b19502d","5c492e3e4c3dc50001fbdb20","6637e3e73f0b865e66358d40","3054","[{""page_index"":0,""viewing_time"":3053}]","","","","","","",""
"success","timeout","failed_images","failed_audio","failed_video","trial_type","trial_index","time_elapsed","internal_node_id","STUDY_ID","PROLIFIC_PID","SESSION_ID","rt","view_history","shapes","occluder","options","response","RT","confidence","confidence_RT"
"true","false","[]","[]","[]","preload","0","62","0.0-0.0","66379be77a6207483b19502d","600c66fafe6f05135db8ede9","6637e3e666a3accad2c5d2da","","","","","","","","",""
"true","","","","","fullscreen","1","5804","0.0-1.0","66379be77a6207483b19502d","600c66fafe6f05135db8ede9","6637e3e666a3accad2c5d2da","4739","","","","","","","",""
"","","","","","instructions","2","51876","0.0-2.0","66379be77a6207483b19502d","600c66fafe6f05135db8ede9","6637e3e666a3accad2c5d2da","46071","[{""page_index"":0,""viewing_time"":8950},{""page_index"":1,""viewing_time"":25518},{""page_index"":2,""viewing_time"":7312},{""page_index"":3,""viewing_time"":2951},{""page_index"":4,""viewing_time"":1340}]","","","","","","",""
"","","","","","jsShapes","3","60795","0.0-3.0-0.0","66379be77a6207483b19502d","600c66fafe6f05135db8ede9","6637e3e666a3accad2c5d2da","","","[0,1]","left","[2,0]","1","7094.900000002235","0.9444444444444444","1814.8999999985099"
"","","","","","jsShapes","4","76088","0.0-3.0-0.1","66379be77a6207483b19502d","600c66fafe6f05135db8ede9","6637e3e666a3accad2c5d2da","","","[2,2]","right","[0,1]","0","13742.5","0.9037037037037037","1536"
"","","","","","jsShapes","5","80505","0.0-3.0-0.2","66379be77a6207483b19502d","600c66fafe6f05135db8ede9","6637e3e666a3accad2c5d2da","","","[0,1]","right","[2,1]","1","2480","0.274074074074074","1920.699999999255"
"","","","","","jsShapes","6","84742","0.0-3.0-0.3","66379be77a6207483b19502d","600c66fafe6f05135db8ede9","6637e3e666a3accad2c5d2da","","","[1,0]","left","[3,0]","0","2784.5","0.19074074074074077","1420.300000000745"
"","","","","","jsShapes","7","88510","0.0-3.0-0.4","66379be77a6207483b19502d","600c66fafe6f05135db8ede9","6637e3e666a3accad2c5d2da","","","[2,0]","left","[0,2]","1","2668.39999999851","0.6648148148148147","1085"
"","","","","","jsShapes","8","92645","0.0-3.0-0.5","66379be77a6207483b19502d","600c66fafe6f05135db8ede9","6637e3e666a3accad2c5d2da","","","[0,1]","right","[4,1]","1","3052.099999997765","0.6685185185185185","1074.7000000029802"
"","","","","","jsShapes","9","96977","0.0-3.0-0.6","66379be77a6207483b19502d","600c66fafe6f05135db8ede9","6637e3e666a3accad2c5d2da","","","[1,3]","right","[1,2]","0","2538","0.2870370370370371","1777.699999999255"
"","","","","","jsShapes","10","100149","0.0-3.0-0.7","66379be77a6207483b19502d","600c66fafe6f05135db8ede9","6637e3e666a3accad2c5d2da","","","[0,1]","left","[3,0]","1","1866","0.7592592592592593","1299.3999999985099"
"","","","","","jsShapes","11","103667","0.0-3.0-0.8","66379be77a6207483b19502d","600c66fafe6f05135db8ede9","6637e3e666a3accad2c5d2da","","","[0,1]","left","[4,0]","1","2574.89999999851","0.8277777777777777","936.8000000007451"
"","","","","","jsShapes","12","107385","0.0-3.0-0.9","66379be77a6207483b19502d","600c66fafe6f05135db8ede9","6637e3e666a3accad2c5d2da","","","[1,2]","right","[4,1]","0","2318.199999999255","0.2055555555555556","1387.300000000745"
"","","","","","jsShapes","13","112719","0.0-3.0-0.10","66379be77a6207483b19502d","600c66fafe6f05135db8ede9","6637e3e666a3accad2c5d2da","","","[2,3]","left","[0,2]","1","4340.5","0.7444444444444445","980.1999999992549"
"","","","","","jsShapes","14","115098","0.0-3.0-0.11","66379be77a6207483b19502d","600c66fafe6f05135db8ede9","6637e3e666a3accad2c5d2da","","","[0,1]","right","[2,1]","1","1618.1000000014901","0.924074074074074","758.3000000007451"
"","","","","","jsShapes","15","119014","0.0-3.0-0.12","66379be77a6207483b19502d","600c66fafe6f05135db8ede9","6637e3e666a3accad2c5d2da","","","[3,0]","left","[4,0]","0","2628.599999997765","1","1270.9000000022352"
"","","","","","jsShapes","16","123131","0.0-3.0-0.13","66379be77a6207483b19502d","600c66fafe6f05135db8ede9","6637e3e666a3accad2c5d2da","","","[4,0]","right","[1,4]","1","3015.5","0.22592592592592597","1092.1000000014901"
"","","","","","jsShapes","17","125480","0.0-3.0-0.14","66379be77a6207483b19502d","600c66fafe6f05135db8ede9","6637e3e666a3accad2c5d2da","","","[0,1]","right","[2,1]","1","1639.5","0.8407407407407408","693.9000000022352"
"","","","","","jsShapes","18","129546","0.0-3.0-0.15","66379be77a6207483b19502d","600c66fafe6f05135db8ede9","6637e3e666a3accad2c5d2da","","","[0,1]","left","[4,0]","1","3251.300000000745","0.9037037037037037","797.6000000014901"
"","","","","","survey-text","19","132232","0.0-4.0","66379be77a6207483b19502d","600c66fafe6f05135db8ede9","6637e3e666a3accad2c5d2da","2683","","","","","{""worker_comments"":""""}","","",""
"","","","","","instructions","20","137240","0.0-5.0","66379be77a6207483b19502d","600c66fafe6f05135db8ede9","6637e3e666a3accad2c5d2da","5008","[{""page_index"":0,""viewing_time"":5008}]","","","","","","",""
"success","timeout","failed_images","failed_audio","failed_video","trial_type","trial_index","time_elapsed","internal_node_id","STUDY_ID","PROLIFIC_PID","SESSION_ID","rt","view_history","shapes","occluder","options","response","RT","confidence","confidence_RT"
"true","false","[]","[]","[]","preload","0","153","0.0-0.0","66379be77a6207483b19502d","5e5d5bca1322f00407344ee0","6637caa397bb695aa1d96dbe","","","","","","","","",""
"true","","","","","fullscreen","1","3248","0.0-1.0","66379be77a6207483b19502d","5e5d5bca1322f00407344ee0","6637caa397bb695aa1d96dbe","2091","","","","","","","",""
"","","","","","instructions","2","34959","0.0-2.0","66379be77a6207483b19502d","5e5d5bca1322f00407344ee0","6637caa397bb695aa1d96dbe","31711","[{""page_index"":0,""viewing_time"":2830},{""page_index"":1,""viewing_time"":17232},{""page_index"":2,""viewing_time"":1297},{""page_index"":3,""viewing_time"":599},{""page_index"":2,""viewing_time"":7080},{""page_index"":3,""viewing_time"":1864},{""page_index"":4,""viewing_time"":809}]","","","","","","",""
"","","","","","jsShapes","3","57260","0.0-3.0-0.0","66379be77a6207483b19502d","5e5d5bca1322f00407344ee0","6637caa397bb695aa1d96dbe","","","[1,0]","right","[4,1]","0","19807.5","1","2453.300000011921"
"","","","","","jsShapes","4","73981","0.0-3.0-0.1","66379be77a6207483b19502d","5e5d5bca1322f00407344ee0","6637caa397bb695aa1d96dbe","","","[0,1]","left","[0,2]","1","15196","1","1512.6000000238419"
"","","","","","jsShapes","5","95766","0.0-3.0-0.2","66379be77a6207483b19502d","5e5d5bca1322f00407344ee0","6637caa397bb695aa1d96dbe","","","[2,3]","left","[3,0]","0","20384.19999998808","0.7844444444444445","1392.3999999761581"
"","","","","","jsShapes","6","101030","0.0-3.0-0.3","66379be77a6207483b19502d","5e5d5bca1322f00407344ee0","6637caa397bb695aa1d96dbe","","","[0,1]","right","[3,1]","1","3645","1","1612.3999999761581"
"","","","","","jsShapes","7","106858","0.0-3.0-0.4","66379be77a6207483b19502d","5e5d5bca1322f00407344ee0","6637caa397bb695aa1d96dbe","","","[0,1]","right","[4,1]","1","4251.099999964237","1","1566.9000000357628"
"","","","","","jsShapes","8","111589","0.0-3.0-0.5","66379be77a6207483b19502d","5e5d5bca1322f00407344ee0","6637caa397bb695aa1d96dbe","","","[2,3]","right","[3,1]","0","3801.5","1","911.8000000119209"
"","","","","","jsShapes","9","117885","0.0-3.0-0.6","66379be77a6207483b19502d","5e5d5bca1322f00407344ee0","6637caa397bb695aa1d96dbe","","","[1,0]","left","[1,0]","1","4991.800000011921","0.8377777777777777","1278.300000011921"
"","","","","","jsShapes","10","126862","0.0-3.0-0.7","66379be77a6207483b19502d","5e5d5bca1322f00407344ee0","6637caa397bb695aa1d96dbe","","","[0,1]","left","[1,0]","1","8035.899999976158","0.8955555555555555","933.6000000238419"
"","","","","","jsShapes","11","136672","0.0-3.0-0.8","66379be77a6207483b19502d","5e5d5bca1322f00407344ee0","6637caa397bb695aa1d96dbe","","","[1,3]","left","[0,3]","1","8635.400000035763","0.7288888888888889","1165.300000011921"
"","","","","","jsShapes","12","144767","0.0-3.0-0.9","66379be77a6207483b19502d","5e5d5bca1322f00407344ee0","6637caa397bb695aa1d96dbe","","","[2,0]","right","[0,1]","0","6538.5","0.72","1545.6000000238419"
"","","","","","jsShapes","13","161871","0.0-3.0-0.10","66379be77a6207483b19502d","5e5d5bca1322f00407344ee0","6637caa397bb695aa1d96dbe","","","[0,1]","left","[1,0]","1","15550.399999976158","0.8866666666666667","1545.1000000238419"
"","","","","","jsShapes","14","173330","0.0-3.0-0.11","66379be77a6207483b19502d","5e5d5bca1322f00407344ee0","6637caa397bb695aa1d96dbe","","","[0,1]","right","[2,1]","1","9536","1","1910.5"
"","","","","","jsShapes","15","183740","0.0-3.0-0.12","66379be77a6207483b19502d","5e5d5bca1322f00407344ee0","6637caa397bb695aa1d96dbe","","","[3,2]","left","[3,0]","0","9283.699999988079","0.6911111111111111","1114"
"","","","","","jsShapes","16","188635","0.0-3.0-0.13","66379be77a6207483b19502d","5e5d5bca1322f00407344ee0","6637caa397bb695aa1d96dbe","","","[0,1]","right","[1,2]","0","3653.899999976158","1","1226.300000011921"
"","","","","","jsShapes","17","196664","0.0-3.0-0.14","66379be77a6207483b19502d","5e5d5bca1322f00407344ee0","6637caa397bb695aa1d96dbe","","","[2,3]","right","[2,1]","0","6699","0.7177777777777778","1308.2000000476837"
"","","","","","jsShapes","18","201478","0.0-3.0-0.15","66379be77a6207483b19502d","5e5d5bca1322f00407344ee0","6637caa397bb695aa1d96dbe","","","[0,1]","left","[0,3]","0","4002","1","796.8999999761581"
"","","","","","survey-text","19","202826","0.0-4.0","66379be77a6207483b19502d","5e5d5bca1322f00407344ee0","6637caa397bb695aa1d96dbe","1335","","","","","{""worker_comments"":""""}","","",""
"","","","","","instructions","20","211127","0.0-5.0","66379be77a6207483b19502d","5e5d5bca1322f00407344ee0","6637caa397bb695aa1d96dbe","8298","[{""page_index"":0,""viewing_time"":8298}]","","","","","","",""
"success","timeout","failed_images","failed_audio","failed_video","trial_type","trial_index","time_elapsed","internal_node_id","STUDY_ID","PROLIFIC_PID","SESSION_ID","rt","view_history","shapes","occluder","options","response","RT","confidence","confidence_RT"
"true","false","[]","[]","[]","preload","0","80","0.0-0.0","66379be77a6207483b19502d","5e2f2afece5e9a4ef7de8452","6637e3bff0f86bae1c5957f2","","","","","","","","",""
"true","","","","","fullscreen","1","7549","0.0-1.0","66379be77a6207483b19502d","5e2f2afece5e9a4ef7de8452","6637e3bff0f86bae1c5957f2","6464","","","","","","","",""
"","","","","","instructions","2","77290","0.0-2.0","66379be77a6207483b19502d","5e2f2afece5e9a4ef7de8452","6637e3bff0f86bae1c5957f2","69738","[{""page_index"":0,""viewing_time"":8904},{""page_index"":1,""viewing_time"":41165},{""page_index"":2,""viewing_time"":12177},{""page_index"":3,""viewing_time"":5127},{""page_index"":4,""viewing_time"":2364}]","","","","","","",""
"","","","","","jsShapes","3","104426","0.0-3.0-0.0","66379be77a6207483b19502d","5e2f2afece5e9a4ef7de8452","6637e3bff0f86bae1c5957f2","","","[3,2]","left","[0,4]","1","22391","0.9888888888888889","4712.4000000003725"
"","","","","","jsShapes","4","128053","0.0-3.0-0.1","66379be77a6207483b19502d","5e2f2afece5e9a4ef7de8452","6637e3bff0f86bae1c5957f2","","","[0,1]","right","[1,2]","0","20765.599999999627","1","2850.0999999996275"
"","","","","","jsShapes","5","147781","0.0-3.0-0.2","66379be77a6207483b19502d","5e2f2afece5e9a4ef7de8452","6637e3bff0f86bae1c5957f2","","","[2,2]","right","[4,1]","0","16877.299999999814","0.4740740740740741","2839.7000000001863"
"","","","","","jsShapes","6","171628","0.0-3.0-0.3","66379be77a6207483b19502d","5e2f2afece5e9a4ef7de8452","6637e3bff0f86bae1c5957f2","","","[0,1]","left","[4,0]","0","21904.700000000186","1","1927.5"
"","","","","","jsShapes","7","187903","0.0-3.0-0.4","66379be77a6207483b19502d","5e2f2afece5e9a4ef7de8452","6637e3bff0f86bae1c5957f2","","","[0,1]","left","[2,0]","1","14271.200000000186","1","1986.4000000003725"
"","","","","","jsShapes","8","200193","0.0-3.0-0.5","66379be77a6207483b19502d","5e2f2afece5e9a4ef7de8452","6637e3bff0f86bae1c5957f2","","","[0,1]","right","[1,4]","1","9712.700000000186","0.4907407407407407","2563.5"
"","","","","","jsShapes","9","215619","0.0-3.0-0.6","66379be77a6207483b19502d","5e2f2afece5e9a4ef7de8452","6637e3bff0f86bae1c5957f2","","","[3,0]","right","[1,0]","0","13633","0.5","1782.8999999994412"
"","","","","","jsShapes","10","230061","0.0-3.0-0.7","66379be77a6207483b19502d","5e2f2afece5e9a4ef7de8452","6637e3bff0f86bae1c5957f2","","","[3,4]","left","[0,3]","1","12523.5","0.48888888888888893","1913.2999999998137"
"","","","","","jsShapes","11","239648","0.0-3.0-0.8","66379be77a6207483b19502d","5e2f2afece5e9a4ef7de8452","6637e3bff0f86bae1c5957f2","","","[1,3]","left","[0,3]","1","7151.699999999255","0.45925925925925926","2417.9000000003725"
"","","","","","jsShapes","12","259058","0.0-3.0-0.9","66379be77a6207483b19502d","5e2f2afece5e9a4ef7de8452","6637e3bff0f86bae1c5957f2","","","[2,0]","right","[1,3]","1","16879.299999999814","0.014814814814814836","2518"
"","","","","","jsShapes","13","272948","0.0-3.0-0.10","66379be77a6207483b19502d","5e2f2afece5e9a4ef7de8452","6637e3bff0f86bae1c5957f2","","","[0,1]","left","[0,4]","0","12250.799999999814","0.9777777777777777","1628"
"","","","","","jsShapes","14","284072","0.0-3.0-0.11","66379be77a6207483b19502d","5e2f2afece5e9a4ef7de8452","6637e3bff0f86bae1c5957f2","","","[0,1]","right","[1,2]","0","9543.899999999441","1","1566.6000000005588"
"","","","","","jsShapes","15","303149","0.0-3.0-0.12","66379be77a6207483b19502d","5e2f2afece5e9a4ef7de8452","6637e3bff0f86bae1c5957f2","","","[0,1]","left","[0,1]","0","17478","1","1579.5"
"","","","","","jsShapes","16","317439","0.0-3.0-0.13","66379be77a6207483b19502d","5e2f2afece5e9a4ef7de8452","6637e3bff0f86bae1c5957f2","","","[0,1]","right","[2,1]","1","12724.200000000186","1","1549.3999999994412"
"","","","","","jsShapes","17","328762","0.0-3.0-0.14","66379be77a6207483b19502d","5e2f2afece5e9a4ef7de8452","6637e3bff0f86bae1c5957f2","","","[3,3]","left","[3,0]","0","9762.5","0.0537037037037037","1547"
"","","","","","jsShapes","18","344254","0.0-3.0-0.15","66379be77a6207483b19502d","5e2f2afece5e9a4ef7de8452","6637e3bff0f86bae1c5957f2","","","[4,0]","right","[3,1]","0","11229.5","0.03518518518518521","4248.399999999441"
"","","","","","survey-text","19","396361","0.0-4.0","66379be77a6207483b19502d","5e2f2afece5e9a4ef7de8452","6637e3bff0f86bae1c5957f2","52093","","","","","{""worker_comments"":""i followed your rule and if it was different i guessed but part of me thought it was logical ""}","","",""
"","","","","","instructions","20","400132","0.0-5.0","66379be77a6207483b19502d","5e2f2afece5e9a4ef7de8452","6637e3bff0f86bae1c5957f2","3769","[{""page_index"":0,""viewing_time"":3768}]","","","","","","",""
"success","timeout","failed_images","failed_audio","failed_video","trial_type","trial_index","time_elapsed","internal_node_id","STUDY_ID","PROLIFIC_PID","SESSION_ID","rt","view_history","shapes","occluder","options","response","RT","confidence","confidence_RT"
"true","false","[]","[]","[]","preload","0","33","0.0-0.0","66379be77a6207483b19502d","5ee18255395f8655ae190e48","6637e4030af1eea06775fb8e","","","","","","","","",""
"true","","","","","fullscreen","1","8335","0.0-1.0","66379be77a6207483b19502d","5ee18255395f8655ae190e48","6637e4030af1eea06775fb8e","7287","","","","","","","",""
"","","","","","instructions","2","144714","0.0-2.0","66379be77a6207483b19502d","5ee18255395f8655ae190e48","6637e4030af1eea06775fb8e","136378","[{""page_index"":0,""viewing_time"":6440},{""page_index"":1,""viewing_time"":108757},{""page_index"":2,""viewing_time"":17605},{""page_index"":3,""viewing_time"":2586},{""page_index"":4,""viewing_time"":990}]","","","","","","",""
"","","","","","jsShapes","3","155907","0.0-3.0-0.0","66379be77a6207483b19502d","5ee18255395f8655ae190e48","6637e4030af1eea06775fb8e","","","[0,1]","right","[0,1]","1","6948.4000000059605","1","4232.899999991059"
"","","","","","jsShapes","4","163373","0.0-3.0-0.1","66379be77a6207483b19502d","5ee18255395f8655ae190e48","6637e4030af1eea06775fb8e","","","[0,1]","left","[3,0]","1","5929.899999991059","1","1523.7000000029802"
"","","","","","jsShapes","5","184190","0.0-3.0-0.2","66379be77a6207483b19502d","5ee18255395f8655ae190e48","6637e4030af1eea06775fb8e","","","[2,2]","right","[3,1]","0","18356.10000000894","1","2452.5999999940395"
"","","","","","jsShapes","6","198723","0.0-3.0-0.3","66379be77a6207483b19502d","5ee18255395f8655ae190e48","6637e4030af1eea06775fb8e","","","[4,2]","left","[1,0]","0","11762.199999988079","0.9888888888888889","2755.9000000059605"
"","","","","","jsShapes","7","206572","0.0-3.0-0.4","66379be77a6207483b19502d","5ee18255395f8655ae190e48","6637e4030af1eea06775fb8e","","","[0,1]","left","[1,0]","1","6657.29999999702","0.9888888888888889","1174.2999999970198"
"","","","","","jsShapes","8","210889","0.0-3.0-0.5","66379be77a6207483b19502d","5ee18255395f8655ae190e48","6637e4030af1eea06775fb8e","","","[0,1]","right","[4,1]","1","3106.7999999970198","0.9888888888888889","1196.5"
"","","","","","jsShapes","9","218372","0.0-3.0-0.6","66379be77a6207483b19502d","5ee18255395f8655ae190e48","6637e4030af1eea06775fb8e","","","[2,4]","left","[2,0]","0","6428.899999991059","0.9888888888888889","1038.4000000059605"
"","","","","","jsShapes","10","225989","0.0-3.0-0.7","66379be77a6207483b19502d","5ee18255395f8655ae190e48","6637e4030af1eea06775fb8e","","","[4,0]","right","[4,1]","0","6480.29999999702","0.9888888888888889","1127.800000011921"
"","","","","","jsShapes","11","230589","0.0-3.0-0.8","66379be77a6207483b19502d","5ee18255395f8655ae190e48","6637e4030af1eea06775fb8e","","","[0,1]","left","[0,2]","0","3047.7000000029802","0.9888888888888889","1550.2000000029802"
"","","","","","jsShapes","12","239455","0.0-3.0-0.9","66379be77a6207483b19502d","5ee18255395f8655ae190e48","6637e4030af1eea06775fb8e","","","[0,1]","right","[1,4]","0","6402.5999999940395","1","2453.2000000029802"
"","","","","","jsShapes","13","245122","0.0-3.0-0.10","66379be77a6207483b19502d","5ee18255395f8655ae190e48","6637e4030af1eea06775fb8e","","","[3,0]","left","[0,3]","1","3243.6000000089407","1","2408.2000000029802"
"","","","","","jsShapes","14","252605","0.0-3.0-0.11","66379be77a6207483b19502d","5ee18255395f8655ae190e48","6637e4030af1eea06775fb8e","","","[2,3]","right","[1,2]","1","5408.29999999702","1","2068.9000000059605"
"","","","","","jsShapes","15","261471","0.0-3.0-0.12","66379be77a6207483b19502d","5ee18255395f8655ae190e48","6637e4030af1eea06775fb8e","","","[0,1]","left","[0,4]","0","6633.5","0.9972222222222222","2218.4000000059605"
"","","","","","jsShapes","16","270871","0.0-3.0-0.13","66379be77a6207483b19502d","5ee18255395f8655ae190e48","6637e4030af1eea06775fb8e","","","[3,4]","right","[3,1]","0","3009.7999999970198","0.9833333333333333","6382.70000000298"
"","","","","","jsShapes","17","280488","0.0-3.0-0.14","66379be77a6207483b19502d","5ee18255395f8655ae190e48","6637e4030af1eea06775fb8e","","","[3,3]","left","[0,1]","1","5847.9000000059605","0.9916666666666667","3766.2999999970198"
"","","","","","jsShapes","18","284354","0.0-3.0-0.15","66379be77a6207483b19502d","5ee18255395f8655ae190e48","6637e4030af1eea06775fb8e","","","[0,1]","right","[1,3]","0","2620.6000000089407","0.9916666666666667","1238.2000000029802"
"","","","","","survey-text","19","312551","0.0-4.0","66379be77a6207483b19502d","5ee18255395f8655ae190e48","6637e4030af1eea06775fb8e","28193","","","","","{""worker_comments"":""loved it! i think i might have got 2 sets wrong in the first few rounds!""}","","",""
"","","","","","instructions","20","316025","0.0-5.0","66379be77a6207483b19502d","5ee18255395f8655ae190e48","6637e4030af1eea06775fb8e","3473","[{""page_index"":0,""viewing_time"":3473}]","","","","","","",""
"success","timeout","failed_images","failed_audio","failed_video","trial_type","trial_index","time_elapsed","internal_node_id","STUDY_ID","PROLIFIC_PID","SESSION_ID","rt","view_history","shapes","occluder","options","response","RT","confidence","confidence_RT"
"true","false","[]","[]","[]","preload","0","85","0.0-0.0","66379be77a6207483b19502d","56b12c0e9f1826000cbcc76c","6637cac458077e6061b62b2d","","","","","","","","",""
"true","","","","","fullscreen","1","4771","0.0-1.0","66379be77a6207483b19502d","56b12c0e9f1826000cbcc76c","6637cac458077e6061b62b2d","3672","","","","","","","",""
"","","","","","instructions","2","325278","0.0-2.0","66379be77a6207483b19502d","56b12c0e9f1826000cbcc76c","6637cac458077e6061b62b2d","320506","[{""page_index"":0,""viewing_time"":4462},{""page_index"":1,""viewing_time"":111765},{""page_index"":2,""viewing_time"":129319},{""page_index"":3,""viewing_time"":57311},{""page_index"":4,""viewing_time"":17649}]","","","","","","",""
"","","","","","jsShapes","3","333453","0.0-3.0-0.0","66379be77a6207483b19502d","56b12c0e9f1826000cbcc76c","6637cac458077e6061b62b2d","","","[0,1]","right","[1,0]","0","4095.5999999046326","0.9953703703703703","4058.4000000953674"
"","","","","","jsShapes","4","350347","0.0-3.0-0.1","66379be77a6207483b19502d","56b12c0e9f1826000cbcc76c","6637cac458077e6061b62b2d","","","[0,1]","left","[4,0]","1","14459.700000047684","0","2427.399999856949"
"","","","","","jsShapes","5","375155","0.0-3.0-0.2","66379be77a6207483b19502d","56b12c0e9f1826000cbcc76c","6637cac458077e6061b62b2d","","","[4,3]","left","[1,0]","1","23045.60000014305","0.00462962962962965","1757.3999998569489"
"","","","","","jsShapes","6","392866","0.0-3.0-0.3","66379be77a6207483b19502d","56b12c0e9f1826000cbcc76c","6637cac458077e6061b62b2d","","","[3,3]","right","[0,1]","0","11835.200000047684","0.01851851851851849","5858.899999856949"
"","","","","","jsShapes","7","438884","0.0-3.0-0.4","66379be77a6207483b19502d","56b12c0e9f1826000cbcc76c","6637cac458077e6061b62b2d","","","[4,4]","left","[0,4]","1","44130.40000009537","0.3287037037037037","1877.7000000476837"
"","","","","","jsShapes","8","477537","0.0-3.0-0.5","66379be77a6207483b19502d","56b12c0e9f1826000cbcc76c","6637cac458077e6061b62b2d","","","[2,2]","right","[4,1]","0","36486.39999985695","0.01157407407407407","2165.600000143051"
"","","","","","jsShapes","9","483002","0.0-3.0-0.6","66379be77a6207483b19502d","56b12c0e9f1826000cbcc76c","6637cac458077e6061b62b2d","","","[0,1]","right","[1,0]","0","3663.2000000476837","1","1791.6999998092651"
"","","","","","jsShapes","10","488066","0.0-3.0-0.7","66379be77a6207483b19502d","56b12c0e9f1826000cbcc76c","6637cac458077e6061b62b2d","","","[0,1]","left","[1,0]","1","2878","1","2170.0999999046326"
"","","","","","jsShapes","11","494214","0.0-3.0-0.8","66379be77a6207483b19502d","56b12c0e9f1826000cbcc76c","6637cac458077e6061b62b2d","","","[4,0]","right","[3,1]","0","4054.7999999523163","0.01851851851851849","2083"
"","","","","","jsShapes","12","501311","0.0-3.0-0.9","66379be77a6207483b19502d","56b12c0e9f1826000cbcc76c","6637cac458077e6061b62b2d","","","[1,0]","left","[3,0]","0","5173.799999952316","0.0092592592592593","1914.4000000953674"
"","","","","","jsShapes","13","506576","0.0-3.0-0.10","66379be77a6207483b19502d","56b12c0e9f1826000cbcc76c","6637cac458077e6061b62b2d","","","[0,1]","left","[0,1]","0","3152.699999809265","1","2109.800000190735"
"","","","","","jsShapes","14","511541","0.0-3.0-0.11","66379be77a6207483b19502d","56b12c0e9f1826000cbcc76c","6637cac458077e6061b62b2d","","","[0,1]","right","[4,1]","1","3006.600000143051","1","1944.7999999523163"
"","","","","","jsShapes","15","516506","0.0-3.0-0.12","66379be77a6207483b19502d","56b12c0e9f1826000cbcc76c","6637cac458077e6061b62b2d","","","[2,3]","right","[0,1]","0","3599.899999856949","0.08333333333333337","1357.6000001430511"
"","","","","","jsShapes","16","524037","0.0-3.0-0.13","66379be77a6207483b19502d","56b12c0e9f1826000cbcc76c","6637cac458077e6061b62b2d","","","[3,2]","left","[3,0]","0","6148.5","0.5046296296296297","1373.5"
"","","","","","jsShapes","17","528785","0.0-3.0-0.14","66379be77a6207483b19502d","56b12c0e9f1826000cbcc76c","6637cac458077e6061b62b2d","","","[0,1]","right","[4,1]","1","3251.5","1","1489.4000000953674"
"","","","","","jsShapes","18","533167","0.0-3.0-0.15","66379be77a6207483b19502d","56b12c0e9f1826000cbcc76c","6637cac458077e6061b62b2d","","","[0,1]","left","[0,1]","0","2606.2000000476837","0.9791666666666666","1759"
"","","","","","survey-text","19","537193","0.0-4.0","66379be77a6207483b19502d","56b12c0e9f1826000cbcc76c","6637cac458077e6061b62b2d","4016","","","","","{""worker_comments"":""""}","","",""
"","","","","","instructions","20","540076","0.0-5.0","66379be77a6207483b19502d","56b12c0e9f1826000cbcc76c","6637cac458077e6061b62b2d","2883","[{""page_index"":0,""viewing_time"":2883}]","","","","","","",""
"success","timeout","failed_images","failed_audio","failed_video","trial_type","trial_index","time_elapsed","internal_node_id","STUDY_ID","PROLIFIC_PID","SESSION_ID","rt","view_history","shapes","occluder","options","response","RT","confidence","confidence_RT"
"true","false","[]","[]","[]","preload","0","123","0.0-0.0","66379be77a6207483b19502d","5f58579578b8a03bd512b9e6","6637cad88257d5811582c89c","","","","","","","","",""
"true","","","","","fullscreen","1","35437","0.0-1.0","66379be77a6207483b19502d","5f58579578b8a03bd512b9e6","6637cad88257d5811582c89c","34303","","","","","","","",""
"","","","","","instructions","2","92260","0.0-2.0","66379be77a6207483b19502d","5f58579578b8a03bd512b9e6","6637cad88257d5811582c89c","56821","[{""page_index"":0,""viewing_time"":5048},{""page_index"":1,""viewing_time"":35100},{""page_index"":2,""viewing_time"":11964},{""page_index"":3,""viewing_time"":2592},{""page_index"":4,""viewing_time"":2116}]","","","","","","",""
"","","","","","jsShapes","3","99602","0.0-3.0-0.0","66379be77a6207483b19502d","5f58579578b8a03bd512b9e6","6637cad88257d5811582c89c","","","[0,1]","right","[3,1]","1","2998.8000000002794","1","4279.899999999907"
"","","","","","jsShapes","4","107466","0.0-3.0-0.1","66379be77a6207483b19502d","5f58579578b8a03bd512b9e6","6637cad88257d5811582c89c","","","[3,2]","right","[1,3]","1","5664.799999999814","0","2171.7000000001863"
"","","","","","jsShapes","5","116888","0.0-3.0-0.2","66379be77a6207483b19502d","5f58579578b8a03bd512b9e6","6637cad88257d5811582c89c","","","[0,1]","left","[2,0]","1","6955.600000000093","0.9560185185185185","2447.2000000001863"
"","","","","","jsShapes","6","125872","0.0-3.0-0.3","66379be77a6207483b19502d","5f58579578b8a03bd512b9e6","6637cad88257d5811582c89c","","","[3,3]","left","[1,0]","1","6449.399999999907","0.1875","2514.2999999998137"
"","","","","","jsShapes","7","132774","0.0-3.0-0.4","66379be77a6207483b19502d","5f58579578b8a03bd512b9e6","6637cad88257d5811582c89c","","","[4,2]","left","[1,0]","1","5538.5","0.13194444444444442","1344.7999999998137"
"","","","","","jsShapes","8","139319","0.0-3.0-0.5","66379be77a6207483b19502d","5f58579578b8a03bd512b9e6","6637cad88257d5811582c89c","","","[3,3]","right","[1,2]","1","4867.700000000186","0","1654.2999999998137"
"","","","","","jsShapes","9","147625","0.0-3.0-0.6","66379be77a6207483b19502d","5f58579578b8a03bd512b9e6","6637cad88257d5811582c89c","","","[0,1]","right","[3,1]","0","6579.200000000186","0.03703703703703709","1700"
"","","","","","jsShapes","10","154101","0.0-3.0-0.7","66379be77a6207483b19502d","5f58579578b8a03bd512b9e6","6637cad88257d5811582c89c","","","[0,1]","left","[0,1]","1","4858.699999999721","0.12037037037037035","1601.7000000001863"
"","","","","","jsShapes","11","159801","0.0-3.0-0.8","66379be77a6207483b19502d","5f58579578b8a03bd512b9e6","6637cad88257d5811582c89c","","","[3,2]","right","[1,3]","1","4047.8000000002794","0.00462962962962965","1627.7999999998137"
"","","","","","jsShapes","12","164766","0.0-3.0-0.9","66379be77a6207483b19502d","5f58579578b8a03bd512b9e6","6637cad88257d5811582c89c","","","[2,4]","left","[2,0]","0","3551.3000000002794","0","1400.1999999997206"
"","","","","","jsShapes","13","169805","0.0-3.0-0.10","66379be77a6207483b19502d","5f58579578b8a03bd512b9e6","6637cad88257d5811582c89c","","","[0,1]","right","[4,1]","1","3257.1999999997206","1","1756.3999999999069"
"","","","","","jsShapes","14","173698","0.0-3.0-0.11","66379be77a6207483b19502d","5f58579578b8a03bd512b9e6","6637cad88257d5811582c89c","","","[0,1]","left","[1,0]","0","2565.399999999907","0","1316.6000000000931"
"","","","","","jsShapes","15","179676","0.0-3.0-0.12","66379be77a6207483b19502d","5f58579578b8a03bd512b9e6","6637cad88257d5811582c89c","","","[4,4]","right","[0,1]","1","4659.700000000186","0.01851851851851849","1297.6000000000931"
"","","","","","jsShapes","16","183869","0.0-3.0-0.13","66379be77a6207483b19502d","5f58579578b8a03bd512b9e6","6637cad88257d5811582c89c","","","[4,3]","left","[4,0]","1","3095.2999999998137","0","1085.1000000000931"
"","","","","","jsShapes","17","188737","0.0-3.0-0.14","66379be77a6207483b19502d","5f58579578b8a03bd512b9e6","6637cad88257d5811582c89c","","","[0,1]","left","[0,2]","0","3454.7999999998137","1","1398.3999999999069"
"","","","","","jsShapes","18","192369","0.0-3.0-0.15","66379be77a6207483b19502d","5f58579578b8a03bd512b9e6","6637cad88257d5811582c89c","","","[0,1]","right","[2,1]","1","2396.100000000093","1","1213.5"
"","","","","","survey-text","19","222461","0.0-4.0","66379be77a6207483b19502d","5f58579578b8a03bd512b9e6","6637cad88257d5811582c89c","30087","","","","","{""worker_comments"":""None that I can think of. It was a fun experiment.""}","","",""
"","","","","","instructions","20","226866","0.0-5.0","66379be77a6207483b19502d","5f58579578b8a03bd512b9e6","6637cad88257d5811582c89c","4404","[{""page_index"":0,""viewing_time"":4404}]","","","","","","",""
"success","timeout","failed_images","failed_audio","failed_video","trial_type","trial_index","time_elapsed","internal_node_id","STUDY_ID","PROLIFIC_PID","SESSION_ID","rt","view_history","shapes","occluder","options","response","RT","confidence","confidence_RT"
"true","false","[]","[]","[]","preload","0","86","0.0-0.0","66379be77a6207483b19502d","59e1e960d838ae00018507e3","6637e3c4515dbd079fea65a0","","","","","","","","",""
"true","","","","","fullscreen","1","5749","0.0-1.0","66379be77a6207483b19502d","59e1e960d838ae00018507e3","6637e3c4515dbd079fea65a0","4649","","","","","","","",""
"","","","","","instructions","2","58029","0.0-2.0","66379be77a6207483b19502d","59e1e960d838ae00018507e3","6637e3c4515dbd079fea65a0","52280","[{""page_index"":0,""viewing_time"":3862},{""page_index"":1,""viewing_time"":24695},{""page_index"":2,""viewing_time"":20118},{""page_index"":3,""viewing_time"":2275},{""page_index"":4,""viewing_time"":1329}]","","","","","","",""
"","","","","","jsShapes","3","67666","0.0-3.0-0.0","66379be77a6207483b19502d","59e1e960d838ae00018507e3","6637e3c4515dbd079fea65a0","","","[0,1]","left","[4,0]","1","6441.899999856949","0.6990740740740741","3178"
"","","","","","jsShapes","4","75464","0.0-3.0-0.1","66379be77a6207483b19502d","59e1e960d838ae00018507e3","6637e3c4515dbd079fea65a0","","","[2,2]","left","[0,2]","0","5210.799999952316","0.37962962962962965","2580"
"","","","","","jsShapes","5","83696","0.0-3.0-0.2","66379be77a6207483b19502d","59e1e960d838ae00018507e3","6637e3c4515dbd079fea65a0","","","[0,1]","right","[3,1]","1","4824.400000095367","0.8657407407407407","3403"
"","","","","","jsShapes","6","91762","0.0-3.0-0.3","66379be77a6207483b19502d","59e1e960d838ae00018507e3","6637e3c4515dbd079fea65a0","","","[4,3]","right","[1,3]","1","6255.299999952316","0.08564814814814814","1794.5"
"","","","","","jsShapes","7","98396","0.0-3.0-0.4","66379be77a6207483b19502d","59e1e960d838ae00018507e3","6637e3c4515dbd079fea65a0","","","[0,1]","left","[0,1]","0","4975.399999856949","0.8680555555555556","1652.9000000953674"
"","","","","","jsShapes","8","107828","0.0-3.0-0.5","66379be77a6207483b19502d","59e1e960d838ae00018507e3","6637e3c4515dbd079fea65a0","","","[3,2]","right","[4,1]","0","5600.200000047684","0.8703703703703703","3817.100000143051"
"","","","","","jsShapes","9","116443","0.0-3.0-0.6","66379be77a6207483b19502d","59e1e960d838ae00018507e3","6637e3c4515dbd079fea65a0","","","[4,2]","left","[0,2]","0","6470.700000047684","0.5185185185185186","2135.2000000476837"
"","","","","","jsShapes","10","123975","0.0-3.0-0.7","66379be77a6207483b19502d","59e1e960d838ae00018507e3","6637e3c4515dbd079fea65a0","","","[0,1]","right","[3,1]","1","5036.400000095367","0.8657407407407407","2486.5999999046326"
"","","","","","jsShapes","11","128808","0.0-3.0-0.8","66379be77a6207483b19502d","59e1e960d838ae00018507e3","6637e3c4515dbd079fea65a0","","","[0,1]","right","[1,3]","0","3190.5","0.8888888888888888","1632.7999999523163"
"","","","","","jsShapes","12","141473","0.0-3.0-0.9","66379be77a6207483b19502d","59e1e960d838ae00018507e3","6637e3c4515dbd079fea65a0","","","[2,0]","right","[1,0]","1","9999.099999904633","0.6481481481481481","2662.5"
"","","","","","jsShapes","13","148805","0.0-3.0-0.10","66379be77a6207483b19502d","59e1e960d838ae00018507e3","6637e3c4515dbd079fea65a0","","","[3,3]","left","[4,0]","0","5292.199999809265","0.6458333333333333","2025.2000000476837"
"","","","","","jsShapes","14","154705","0.0-3.0-0.11","66379be77a6207483b19502d","59e1e960d838ae00018507e3","6637e3c4515dbd079fea65a0","","","[0,1]","left","[2,0]","1","3349.7999999523163","0.8472222222222222","2532.9000000953674"
"","","","","","jsShapes","15","159704","0.0-3.0-0.12","66379be77a6207483b19502d","59e1e960d838ae00018507e3","6637e3c4515dbd079fea65a0","","","[0,1]","right","[1,3]","0","3265","0.8472222222222222","1714"
"","","","","","jsShapes","16","165786","0.0-3.0-0.13","66379be77a6207483b19502d","59e1e960d838ae00018507e3","6637e3c4515dbd079fea65a0","","","[3,0]","left","[4,0]","0","3495.2999999523163","0.5324074074074074","2578.4000000953674"
"","","","","","jsShapes","17","172386","0.0-3.0-0.14","66379be77a6207483b19502d","59e1e960d838ae00018507e3","6637e3c4515dbd079fea65a0","","","[3,2]","right","[0,1]","0","4560.5","0.7777777777777778","2036.4000000953674"
"","","","","","jsShapes","18","177452","0.0-3.0-0.15","66379be77a6207483b19502d","59e1e960d838ae00018507e3","6637e3c4515dbd079fea65a0","","","[0,1]","left","[4,0]","1","2294","0.8564814814814815","2762"
"","","","","","survey-text","19","195191","0.0-4.0","66379be77a6207483b19502d","59e1e960d838ae00018507e3","6637e3c4515dbd079fea65a0","17730","","","","","{""worker_comments"":""nothing to add""}","","",""
"","","","","","instructions","20","197381","0.0-5.0","66379be77a6207483b19502d","59e1e960d838ae00018507e3","6637e3c4515dbd079fea65a0","2189","[{""page_index"":0,""viewing_time"":2188}]","","","","","","",""
"success","timeout","failed_images","failed_audio","failed_video","trial_type","trial_index","time_elapsed","internal_node_id","STUDY_ID","PROLIFIC_PID","SESSION_ID","rt","view_history","shapes","occluder","options","response","RT","confidence","confidence_RT"
"true","false","[]","[]","[]","preload","0","121","0.0-0.0","66379be77a6207483b19502d","5ec99d7b36e0214b2f821627","6637e3de87c88b348f9a4fb0","","","","","","","","",""
"true","","","","","fullscreen","1","82646","0.0-1.0","66379be77a6207483b19502d","5ec99d7b36e0214b2f821627","6637e3de87c88b348f9a4fb0","81523","","","","","","","",""
"","","","","","instructions","2","102588","0.0-2.0","66379be77a6207483b19502d","5ec99d7b36e0214b2f821627","6637e3de87c88b348f9a4fb0","19942","[{""page_index"":0,""viewing_time"":4079},{""page_index"":1,""viewing_time"":4239},{""page_index"":2,""viewing_time"":8033},{""page_index"":3,""viewing_time"":2496},{""page_index"":4,""viewing_time"":1096}]","","","","","","",""
"","","","","","jsShapes","3","111044","0.0-3.0-0.0","66379be77a6207483b19502d","5ec99d7b36e0214b2f821627","6637e3de87c88b348f9a4fb0","","","[0,1]","right","[4,1]","0","4962.300000000745","0.6648148148148147","3482.4000000003725"
"","","","","","jsShapes","4","127008","0.0-3.0-0.1","66379be77a6207483b19502d","5ec99d7b36e0214b2f821627","6637e3de87c88b348f9a4fb0","","","[3,3]","right","[2,1]","1","14597.799999998882","0.3759259259259259","1350.2000000011176"
"","","","","","jsShapes","5","131341","0.0-3.0-0.2","66379be77a6207483b19502d","5ec99d7b36e0214b2f821627","6637e3de87c88b348f9a4fb0","","","[3,2]","left","[2,0]","1","3291.2000000011176","0.8388888888888889","1032.5999999996275"
"","","","","","jsShapes","6","134758","0.0-3.0-0.3","66379be77a6207483b19502d","5ec99d7b36e0214b2f821627","6637e3de87c88b348f9a4fb0","","","[0,1]","left","[2,0]","0","2741.89999999851","0.912962962962963","669.1000000014901"
"","","","","","jsShapes","7","138591","0.0-3.0-0.4","66379be77a6207483b19502d","5ec99d7b36e0214b2f821627","6637e3de87c88b348f9a4fb0","","","[2,4]","right","[0,1]","1","3236.9000000003725","0.7592592592592593","588.6999999992549"
"","","","","","jsShapes","8","140743","0.0-3.0-0.5","66379be77a6207483b19502d","5ec99d7b36e0214b2f821627","6637e3de87c88b348f9a4fb0","","","[1,2]","left","[3,0]","0","1500.699999999255","0.7407407407407407","631.2000000011176"
"","","","","","jsShapes","9","143243","0.0-3.0-0.6","66379be77a6207483b19502d","5ec99d7b36e0214b2f821627","6637e3de87c88b348f9a4fb0","","","[0,1]","left","[0,1]","0","2019.5","0.8462962962962963","469.90000000037253"
"","","","","","jsShapes","10","145604","0.0-3.0-0.7","66379be77a6207483b19502d","5ec99d7b36e0214b2f821627","6637e3de87c88b348f9a4fb0","","","[0,1]","right","[1,3]","1","1775.7999999988824","0.8018518518518518","568"
"","","","","","jsShapes","11","148812","0.0-3.0-0.8","66379be77a6207483b19502d","5ec99d7b36e0214b2f821627","6637e3de87c88b348f9a4fb0","","","[0,1]","left","[0,4]","0","2398.7999999988824","0.7240740740740741","801.1000000014901"
"","","","","","jsShapes","12","151312","0.0-3.0-0.9","66379be77a6207483b19502d","5ec99d7b36e0214b2f821627","6637e3de87c88b348f9a4fb0","","","[1,0]","right","[0,1]","1","1862.800000000745","0.7037037037037037","632.9000000003725"
"","","","","","jsShapes","13","153215","0.0-3.0-0.10","66379be77a6207483b19502d","5ec99d7b36e0214b2f821627","6637e3de87c88b348f9a4fb0","","","[3,4]","left","[4,0]","0","1339.699999999255","0.7111111111111111","550.4000000003725"
"","","","","","jsShapes","14","155784","0.0-3.0-0.11","66379be77a6207483b19502d","5ec99d7b36e0214b2f821627","6637e3de87c88b348f9a4fb0","","","[0,1]","right","[1,2]","1","2100.5","0.7296296296296296","455.90000000037253"
"","","","","","jsShapes","15","158561","0.0-3.0-0.12","66379be77a6207483b19502d","5ec99d7b36e0214b2f821627","6637e3de87c88b348f9a4fb0","","","[0,1]","left","[0,2]","0","1668","0.8055555555555556","1101.0999999996275"
"","","","","","jsShapes","16","161915","0.0-3.0-0.13","66379be77a6207483b19502d","5ec99d7b36e0214b2f821627","6637e3de87c88b348f9a4fb0","","","[0,1]","right","[3,1]","1","2383.60000000149","0.8462962962962963","961.6999999992549"
"","","","","","jsShapes","17","164346","0.0-3.0-0.14","66379be77a6207483b19502d","5ec99d7b36e0214b2f821627","6637e3de87c88b348f9a4fb0","","","[1,0]","right","[1,2]","1","1864","0.9074074074074074","545.8000000007451"
"","","","","","jsShapes","18","167366","0.0-3.0-0.15","66379be77a6207483b19502d","5ec99d7b36e0214b2f821627","6637e3de87c88b348f9a4fb0","","","[3,0]","left","[3,0]","0","2449.699999999255","0.9851851851851852","562.4000000003725"
"","","","","","survey-text","19","168501","0.0-4.0","66379be77a6207483b19502d","5ec99d7b36e0214b2f821627","6637e3de87c88b348f9a4fb0","1131","","","","","{""worker_comments"":""""}","","",""
"","","","","","instructions","20","171533","0.0-5.0","66379be77a6207483b19502d","5ec99d7b36e0214b2f821627","6637e3de87c88b348f9a4fb0","3032","[{""page_index"":0,""viewing_time"":3032}]","","","","","","",""
"success","timeout","failed_images","failed_audio","failed_video","trial_type","trial_index","time_elapsed","internal_node_id","STUDY_ID","PROLIFIC_PID","SESSION_ID","rt","view_history","shapes","occluder","options","response","RT","confidence","confidence_RT"
"true","false","[]","[]","[]","preload","0","2361","0.0-0.0","66379be77a6207483b19502d","5a4996b835c9d50001fdcdbf","6637e3d858077e6061b62fb4","","","","","","","","",""
"true","","","","","fullscreen","1","17192","0.0-1.0","66379be77a6207483b19502d","5a4996b835c9d50001fdcdbf","6637e3d858077e6061b62fb4","13819","","","","","","","",""
"","","","","","instructions","2","43532","0.0-2.0","66379be77a6207483b19502d","5a4996b835c9d50001fdcdbf","6637e3d858077e6061b62fb4","26338","[{""page_index"":0,""viewing_time"":2549},{""page_index"":1,""viewing_time"":13310},{""page_index"":2,""viewing_time"":8671},{""page_index"":3,""viewing_time"":1131},{""page_index"":4,""viewing_time"":677}]","","","","","","",""
"","","","","","jsShapes","3","59579","0.0-3.0-0.0","66379be77a6207483b19502d","5a4996b835c9d50001fdcdbf","6637e3d858077e6061b62fb4","","","[0,1]","left","[2,0]","0","8297.299999952316","0.5364583333333333","7711.900000095367"
"","","","","","jsShapes","4","67209","0.0-3.0-0.1","66379be77a6207483b19502d","5a4996b835c9d50001fdcdbf","6637e3d858077e6061b62fb4","","","[0,1]","right","[0,1]","1","5282.600000143051","1","2323.2999999523163"
"","","","","","jsShapes","5","73986","0.0-3.0-0.2","66379be77a6207483b19502d","5a4996b835c9d50001fdcdbf","6637e3d858077e6061b62fb4","","","[3,3]","left","[0,3]","0","3387.600000143051","0.29947916666666663","3373.399999856949"
"","","","","","jsShapes","6","81213","0.0-3.0-0.3","66379be77a6207483b19502d","5a4996b835c9d50001fdcdbf","6637e3d858077e6061b62fb4","","","[1,3]","right","[1,4]","1","5360.299999952316","0.11458333333333337","1845.5"
"","","","","","jsShapes","7","86884","0.0-3.0-0.4","66379be77a6207483b19502d","5a4996b835c9d50001fdcdbf","6637e3d858077e6061b62fb4","","","[3,3]","left","[0,4]","0","3813.399999856949","0.16666666666666663","1841.1000001430511"
"","","","","","jsShapes","8","90956","0.0-3.0-0.5","66379be77a6207483b19502d","5a4996b835c9d50001fdcdbf","6637e3d858077e6061b62fb4","","","[0,1]","left","[4,0]","1","2782.5","0.16666666666666663","1277.2000000476837"
"","","","","","jsShapes","9","95566","0.0-3.0-0.6","66379be77a6207483b19502d","5a4996b835c9d50001fdcdbf","6637e3d858077e6061b62fb4","","","[4,4]","right","[4,1]","1","2972.0999999046326","0.203125","1624.2000000476837"
"","","","","","jsShapes","10","101184","0.0-3.0-0.7","66379be77a6207483b19502d","5a4996b835c9d50001fdcdbf","6637e3d858077e6061b62fb4","","","[0,1]","right","[0,1]","1","4324.600000143051","0.203125","1272.7999999523163"
"","","","","","jsShapes","11","107211","0.0-3.0-0.8","66379be77a6207483b19502d","5a4996b835c9d50001fdcdbf","6637e3d858077e6061b62fb4","","","[2,0]","left","[0,2]","1","3383.2999999523163","0.20572916666666663","2605.7999999523163"
"","","","","","jsShapes","12","117603","0.0-3.0-0.9","66379be77a6207483b19502d","5a4996b835c9d50001fdcdbf","6637e3d858077e6061b62fb4","","","[0,1]","left","[0,2]","0","6800","1","3576.199999809265"
"","","","","","jsShapes","13","122331","0.0-3.0-0.10","66379be77a6207483b19502d","5a4996b835c9d50001fdcdbf","6637e3d858077e6061b62fb4","","","[4,3]","right","[1,2]","1","3028.5","0.21875","1680.2999999523163"
"","","","","","jsShapes","14","127682","0.0-3.0-0.11","66379be77a6207483b19502d","5a4996b835c9d50001fdcdbf","6637e3d858077e6061b62fb4","","","[0,1]","right","[3,1]","1","3057.4000000953674","1","2268"
"","","","","","jsShapes","15","133655","0.0-3.0-0.12","66379be77a6207483b19502d","5a4996b835c9d50001fdcdbf","6637e3d858077e6061b62fb4","","","[0,1]","left","[0,2]","0","3773.7999999523163","0.9947916666666666","2181.2000000476837"
"","","","","","jsShapes","16","140327","0.0-3.0-0.13","66379be77a6207483b19502d","5a4996b835c9d50001fdcdbf","6637e3d858077e6061b62fb4","","","[4,0]","left","[1,0]","0","4320.400000095367","0.18229166666666663","2327.899999856949"
"","","","","","jsShapes","17","145584","0.0-3.0-0.14","66379be77a6207483b19502d","5a4996b835c9d50001fdcdbf","6637e3d858077e6061b62fb4","","","[1,3]","right","[1,3]","1","3741.0999999046326","0.1796875","1498.2000000476837"
"","","","","","jsShapes","18","151508","0.0-3.0-0.15","66379be77a6207483b19502d","5a4996b835c9d50001fdcdbf","6637e3d858077e6061b62fb4","","","[0,1]","right","[1,2]","0","3571.800000190735","0.9713541666666666","2325.5999999046326"
"","","","","","survey-text","19","154889","0.0-4.0","66379be77a6207483b19502d","5a4996b835c9d50001fdcdbf","6637e3d858077e6061b62fb4","3361","","","","","{""worker_comments"":""""}","","",""
"","","","","","instructions","20","157356","0.0-5.0","66379be77a6207483b19502d","5a4996b835c9d50001fdcdbf","6637e3d858077e6061b62fb4","2466","[{""page_index"":0,""viewing_time"":2465}]","","","","","","",""
"success","timeout","failed_images","failed_audio","failed_video","trial_type","trial_index","time_elapsed","internal_node_id","STUDY_ID","PROLIFIC_PID","SESSION_ID","rt","view_history","shapes","occluder","options","response","RT","confidence","confidence_RT"
"true","false","[]","[]","[]","preload","0","1601","0.0-0.0","66379be77a6207483b19502d","5e9fd839311b8018f88c99eb","6637e3d8d4a9d886f7044de6","","","","","","","","",""
"true","","","","","fullscreen","1","7998","0.0-1.0","66379be77a6207483b19502d","5e9fd839311b8018f88c99eb","6637e3d8d4a9d886f7044de6","5363","","","","","","","",""
"","","","","","instructions","2","64098","0.0-2.0","66379be77a6207483b19502d","5e9fd839311b8018f88c99eb","6637e3d8d4a9d886f7044de6","56093","[{""page_index"":0,""viewing_time"":19167},{""page_index"":1,""viewing_time"":22238},{""page_index"":2,""viewing_time"":10498},{""page_index"":3,""viewing_time"":2562},{""page_index"":4,""viewing_time"":1626}]","","","","","","",""
"","","","","","jsShapes","3","76241","0.0-3.0-0.0","66379be77a6207483b19502d","5e9fd839311b8018f88c99eb","6637e3d8d4a9d886f7044de6","","","[1,0]","right","[1,0]","1","7704.700000001118","0.22184531886024428","4355.4000000003725"
"","","","","","jsShapes","4","83041","0.0-3.0-0.1","66379be77a6207483b19502d","5e9fd839311b8018f88c99eb","6637e3d8d4a9d886f7044de6","","","[3,4]","left","[1,0]","0","4427.5","0.2978290366350068","2357"
"","","","","","jsShapes","5","91440","0.0-3.0-0.2","66379be77a6207483b19502d","5e9fd839311b8018f88c99eb","6637e3d8d4a9d886f7044de6","","","[0,1]","right","[3,1]","1","6092","0.1675712347354138","2291"
"","","","","","jsShapes","6","119407","0.0-3.0-0.3","66379be77a6207483b19502d","5e9fd839311b8018f88c99eb","6637e3d8d4a9d886f7044de6","","","[0,1]","left","[0,2]","0","3314.4000000003725","0.1350067842605156","24638.699999999255"
"","","","","","jsShapes","7","125740","0.0-3.0-0.4","66379be77a6207483b19502d","5e9fd839311b8018f88c99eb","6637e3d8d4a9d886f7044de6","","","[0,1]","left","[1,0]","1","3875.199999999255","0.21370420624151965","2443.800000000745"
"","","","","","jsShapes","8","133991","0.0-3.0-0.5","66379be77a6207483b19502d","5e9fd839311b8018f88c99eb","6637e3d8d4a9d886f7044de6","","","[2,4]","right","[1,0]","1","3562.5","0.49321573948439623","4680.800000000745"
"","","","","","jsShapes","9","148222","0.0-3.0-0.6","66379be77a6207483b19502d","5e9fd839311b8018f88c99eb","6637e3d8d4a9d886f7044de6","","","[2,0]","left","[0,3]","0","7359","0.6397557666214382","6859.5"
"","","","","","jsShapes","10","163780","0.0-3.0-0.7","66379be77a6207483b19502d","5e9fd839311b8018f88c99eb","6637e3d8d4a9d886f7044de6","","","[0,1]","right","[0,1]","1","3068","0.24084124830393483","12480.10000000149"
"","","","","","jsShapes","11","169272","0.0-3.0-0.8","66379be77a6207483b19502d","5e9fd839311b8018f88c99eb","6637e3d8d4a9d886f7044de6","","","[0,1]","left","[0,3]","1","3012.5999999996275","0.7808683853459972","2468.5"
"","","","","","jsShapes","12","188740","0.0-3.0-0.9","66379be77a6207483b19502d","5e9fd839311b8018f88c99eb","6637e3d8d4a9d886f7044de6","","","[0,1]","right","[1,0]","0","3344.699999999255","0.2001356852103121","16110.5"
"","","","","","jsShapes","13","205288","0.0-3.0-0.10","66379be77a6207483b19502d","5e9fd839311b8018f88c99eb","6637e3d8d4a9d886f7044de6","","","[2,4]","right","[1,4]","1","2882.699999999255","0.7971506105834464","13651.200000001118"
"","","","","","jsShapes","14","212177","0.0-3.0-0.11","66379be77a6207483b19502d","5e9fd839311b8018f88c99eb","6637e3d8d4a9d886f7044de6","","","[1,2]","left","[0,2]","0","4221","0.6940298507462687","2660.89999999851"
"","","","","","jsShapes","15","227106","0.0-3.0-0.12","66379be77a6207483b19502d","5e9fd839311b8018f88c99eb","6637e3d8d4a9d886f7044de6","","","[4,3]","right","[1,0]","0","2978.699999999255","0.5773405698778833","11936.400000000373"
"","","","","","jsShapes","16","256073","0.0-3.0-0.13","66379be77a6207483b19502d","5e9fd839311b8018f88c99eb","6637e3d8d4a9d886f7044de6","","","[1,0]","left","[2,0]","1","2682.5999999996275","0.47421981004070557","26273.200000001118"
"","","","","","jsShapes","17","261791","0.0-3.0-0.14","66379be77a6207483b19502d","5e9fd839311b8018f88c99eb","6637e3d8d4a9d886f7044de6","","","[0,1]","right","[1,3]","0","3470.699999999255","0.49592944369063774","2241.800000000745"
"","","","","","jsShapes","18","283827","0.0-3.0-0.15","66379be77a6207483b19502d","5e9fd839311b8018f88c99eb","6637e3d8d4a9d886f7044de6","","","[0,1]","left","[0,1]","1","4146.200000001118","0.6560379918588874","17878.900000000373"
"","","","","","survey-text","19","339459","0.0-4.0","66379be77a6207483b19502d","5e9fd839311b8018f88c99eb","6637e3d8d4a9d886f7044de6","55566","","","","","{""worker_comments"":""Experiment made me think""}","","",""
"","","","","","instructions","20","348245","0.0-5.0","66379be77a6207483b19502d","5e9fd839311b8018f88c99eb","6637e3d8d4a9d886f7044de6","8780","[{""page_index"":0,""viewing_time"":8779}]","","","","","","",""
