"success","timeout","failed_images","failed_audio","failed_video","trial_type","trial_index","time_elapsed","internal_node_id","STUDY_ID","PROLIFIC_PID","SESSION_ID","practice_rare_shape_loops","comprehension_visits","rt","view_history","shapes","occluder","options","response","rare_option","RT","confidence","confidence_RT","question_order"
"true","false","[]","[]","[]","preload","0","923","0.0-0.0","665f9ff8981f9a2e65a2cccc","65b8d3c74e8792e03f2f8a71","665fb45f88ef7a7f1ebb0a1e","1","2","","","","","","","","","","",""
"true","","","","","fullscreen","1","4715","0.0-1.0","665f9ff8981f9a2e65a2cccc","65b8d3c74e8792e03f2f8a71","665fb45f88ef7a7f1ebb0a1e","1","2","2788","","","","","","","","","",""
"","","","","","instructions","2","40951","0.0-2.0","665f9ff8981f9a2e65a2cccc","65b8d3c74e8792e03f2f8a71","665fb45f88ef7a7f1ebb0a1e","1","2","36236","[{""page_index"":0,""viewing_time"":3376},{""page_index"":1,""viewing_time"":24190},{""page_index"":2,""viewing_time"":6046},{""page_index"":3,""viewing_time"":1551},{""page_index"":4,""viewing_time"":1072}]","","","","","","","","",""
"","","","","","jsShapes","3","51578","0.0-3.0-0.0","665f9ff8981f9a2e65a2cccc","65b8d3c74e8792e03f2f8a71","665fb45f88ef7a7f1ebb0a1e","1","2","","","[0,1]","right","[1,4]","0","false","7510","1","3090",""
"","","","","","jsShapes","4","62478","0.0-3.0-0.1","665f9ff8981f9a2e65a2cccc","65b8d3c74e8792e03f2f8a71","665fb45f88ef7a7f1ebb0a1e","1","2","","","[1,0]","left","[4,0]","0","false","8556","0.9955555555555555","2324",""
"","","","","","jsShapes","5","72445","0.0-3.0-0.2","665f9ff8981f9a2e65a2cccc","65b8d3c74e8792e03f2f8a71","665fb45f88ef7a7f1ebb0a1e","1","2","","","[0,1]","left","[1,0]","1","false","7757","0.9888888888888889","2175.0000000000146",""
"","","","","","jsShapes","6","93111","0.0-3.0-0.3","665f9ff8981f9a2e65a2cccc","65b8d3c74e8792e03f2f8a71","665fb45f88ef7a7f1ebb0a1e","1","2","","","[4,3]","right","[2,1]","0","false","18581","0.9955555555555555","2067",""
"","","","","","jsShapes","7","105411","0.0-3.0-0.4","665f9ff8981f9a2e65a2cccc","65b8d3c74e8792e03f2f8a71","665fb45f88ef7a7f1ebb0a1e","1","2","","","[2,3]","right","[1,0]","1","false","10304","1","1960",""
"","","","","","jsShapes","8","120410","0.0-3.0-0.5","665f9ff8981f9a2e65a2cccc","65b8d3c74e8792e03f2f8a71","665fb45f88ef7a7f1ebb0a1e","1","2","","","[3,0]","left","[0,2]","1","false","12713","1","2252",""
"","","","","","jsShapes","9","126644","0.0-3.0-0.6","665f9ff8981f9a2e65a2cccc","65b8d3c74e8792e03f2f8a71","665fb45f88ef7a7f1ebb0a1e","1","2","","","[0,1]","left","[0,4]","0","false","4414","0.9844444444444445","1784.9999999999854",""
"","","","","","jsShapes","10","132411","0.0-3.0-0.7","665f9ff8981f9a2e65a2cccc","65b8d3c74e8792e03f2f8a71","665fb45f88ef7a7f1ebb0a1e","1","2","","","[0,1]","right","[0,1]","1","false","4054","1","1695",""
"","","","","","jsShapes","11","139944","0.0-3.0-0.8","665f9ff8981f9a2e65a2cccc","65b8d3c74e8792e03f2f8a71","665fb45f88ef7a7f1ebb0a1e","1","2","","","[1,3]","left","[0,2]","1","false","5705","0.9888888888888889","1808",""
"","","","","","jsShapes","12","147244","0.0-3.0-0.9","665f9ff8981f9a2e65a2cccc","65b8d3c74e8792e03f2f8a71","665fb45f88ef7a7f1ebb0a1e","1","2","","","[0,1]","right","[1,3]","0","false","5129","1","2149",""
"","","","","","jsShapes","13","155544","0.0-3.0-0.10","665f9ff8981f9a2e65a2cccc","65b8d3c74e8792e03f2f8a71","665fb45f88ef7a7f1ebb0a1e","1","2","","","[0,1]","left","[0,3]","0","false","6400","0.9955555555555555","1865",""
"","","","","","jsShapes","14","166244","0.0-3.0-0.11","665f9ff8981f9a2e65a2cccc","65b8d3c74e8792e03f2f8a71","665fb45f88ef7a7f1ebb0a1e","1","2","","","[4,4]","right","[1,2]","1","false","8481.00000000003","1","2182.999999999971",""
"","","","","","jsShapes","15","172744","0.0-3.0-0.12","665f9ff8981f9a2e65a2cccc","65b8d3c74e8792e03f2f8a71","665fb45f88ef7a7f1ebb0a1e","1","2","","","[0,1]","right","[0,1]","1","false","4476","0.9866666666666667","2005",""
"","","","","","jsShapes","16","182844","0.0-3.0-0.13","665f9ff8981f9a2e65a2cccc","65b8d3c74e8792e03f2f8a71","665fb45f88ef7a7f1ebb0a1e","1","2","","","[4,4]","left","[0,3]","1","false","8266","1","1815",""
"","","","","","jsShapes","17","198210","0.0-3.0-0.14","665f9ff8981f9a2e65a2cccc","65b8d3c74e8792e03f2f8a71","665fb45f88ef7a7f1ebb0a1e","1","2","","","[1,4]","right","[4,1]","0","false","13615.00000000003","0.9866666666666667","1733.999999999971",""
"","","","","","jsShapes","18","203977","0.0-3.0-0.15","665f9ff8981f9a2e65a2cccc","65b8d3c74e8792e03f2f8a71","665fb45f88ef7a7f1ebb0a1e","1","2","","","[0,1]","left","[0,3]","0","false","3852","1","1880",""
"","","","","","instructions","19","209517","0.0-4.0","665f9ff8981f9a2e65a2cccc","65b8d3c74e8792e03f2f8a71","665fb45f88ef7a7f1ebb0a1e","1","2","5538","[{""page_index"":0,""viewing_time"":5538}]","","","","","","","","",""
"","","","","","survey-multi-choice","20","230199","0.0-5.0-1.0-0.0","665f9ff8981f9a2e65a2cccc","65b8d3c74e8792e03f2f8a71","665fb45f88ef7a7f1ebb0a1e","1","2","20678","","","","","{""multichoice_rare_shape"":""3. About as likely as all other shapes.""}","","","","","[0]"
"","","","","","instructions","21","233999","0.0-5.1-0.1-0.1","665f9ff8981f9a2e65a2cccc","65b8d3c74e8792e03f2f8a71","665fb45f88ef7a7f1ebb0a1e","1","2","3796","[{""page_index"":0,""viewing_time"":3796}]","","","","","","","","",""
"","","","","","survey-multi-choice","22","237366","0.0-5.1-1.1-0.1","665f9ff8981f9a2e65a2cccc","65b8d3c74e8792e03f2f8a71","665fb45f88ef7a7f1ebb0a1e","1","2","3363","","","","","{""multichoice_rare_shape"":""2. Much less likely than all other shapes.""}","","","","","[0]"
"","","","","","instructions","23","248224","0.0-6.0","665f9ff8981f9a2e65a2cccc","65b8d3c74e8792e03f2f8a71","665fb45f88ef7a7f1ebb0a1e","1","2","10853","[{""page_index"":0,""viewing_time"":10853}]","","","","","","","","",""
"","","","","","jsShapes","24","257610","0.0-7.0-0.0","665f9ff8981f9a2e65a2cccc","65b8d3c74e8792e03f2f8a71","665fb45f88ef7a7f1ebb0a1e","1","2","","","[1,2]","left","[5,0]","0","true","7533.999999999971","1","1833.000000000029",""
"","","","","","survey-text","25","270968","0.0-8.0","665f9ff8981f9a2e65a2cccc","65b8d3c74e8792e03f2f8a71","665fb45f88ef7a7f1ebb0a1e","1","2","13353","","","","","{""worker_comments"":""""}","","","","",""
"","","","","","instructions","26","273031","0.0-9.0","665f9ff8981f9a2e65a2cccc","65b8d3c74e8792e03f2f8a71","665fb45f88ef7a7f1ebb0a1e","1","2","2062","[{""page_index"":0,""viewing_time"":2061}]","","","","","","","","",""
"success","timeout","failed_images","failed_audio","failed_video","trial_type","trial_index","time_elapsed","internal_node_id","STUDY_ID","PROLIFIC_PID","SESSION_ID","practice_rare_shape_loops","comprehension_visits","rt","view_history","shapes","occluder","options","response","rare_option","RT","confidence","confidence_RT","question_order"
"true","false","[]","[]","[]","preload","0","348","0.0-0.0","665f9ff8981f9a2e65a2cccc","6615c429a31a4c09456fec9d","665fa6c6de2c89d3d93c9f0f","0","1","","","","","","","","","","",""
"true","","","","","fullscreen","1","4227","0.0-1.0","665f9ff8981f9a2e65a2cccc","6615c429a31a4c09456fec9d","665fa6c6de2c89d3d93c9f0f","0","1","2873","","","","","","","","","",""
"","","","","","instructions","2","34952","0.0-2.0","665f9ff8981f9a2e65a2cccc","6615c429a31a4c09456fec9d","665fa6c6de2c89d3d93c9f0f","0","1","30724","[{""page_index"":0,""viewing_time"":2767},{""page_index"":1,""viewing_time"":18134},{""page_index"":2,""viewing_time"":7103},{""page_index"":3,""viewing_time"":1783},{""page_index"":4,""viewing_time"":936}]","","","","","","","","",""
"","","","","","jsShapes","3","52654","0.0-3.0-0.0","665f9ff8981f9a2e65a2cccc","6615c429a31a4c09456fec9d","665fa6c6de2c89d3d93c9f0f","0","1","","","[1,2]","left","[3,0]","1","false","15230.900000095367","1","2454",""
"","","","","","jsShapes","4","58286","0.0-3.0-0.1","665f9ff8981f9a2e65a2cccc","6615c429a31a4c09456fec9d","665fa6c6de2c89d3d93c9f0f","0","1","","","[0,1]","right","[2,1]","1","false","3649.2000000476837","1","1976.2999999523163",""
"","","","","","jsShapes","5","66069","0.0-3.0-0.2","665f9ff8981f9a2e65a2cccc","6615c429a31a4c09456fec9d","665fa6c6de2c89d3d93c9f0f","0","1","","","[2,2]","right","[1,4]","0","false","6337.799999952316","1","1435.2999999523163",""
"","","","","","jsShapes","6","69402","0.0-3.0-0.3","665f9ff8981f9a2e65a2cccc","6615c429a31a4c09456fec9d","665fa6c6de2c89d3d93c9f0f","0","1","","","[0,1]","left","[1,0]","1","false","2363.0999999046326","1","961.7999999523163",""
"","","","","","jsShapes","7","79602","0.0-3.0-0.4","665f9ff8981f9a2e65a2cccc","6615c429a31a4c09456fec9d","665fa6c6de2c89d3d93c9f0f","0","1","","","[3,0]","left","[2,0]","1","false","9048.299999952316","1","1140",""
"","","","","","jsShapes","8","84218","0.0-3.0-0.5","665f9ff8981f9a2e65a2cccc","6615c429a31a4c09456fec9d","665fa6c6de2c89d3d93c9f0f","0","1","","","[0,1]","right","[2,1]","1","false","3361.600000143051","1","1247.3999998569489",""
"","","","","","jsShapes","9","87968","0.0-3.0-0.6","665f9ff8981f9a2e65a2cccc","6615c429a31a4c09456fec9d","665fa6c6de2c89d3d93c9f0f","0","1","","","[0,1]","left","[2,0]","1","false","2239.7000000476837","1","1501.9000000953674",""
"","","","","","jsShapes","10","93018","0.0-3.0-0.7","665f9ff8981f9a2e65a2cccc","6615c429a31a4c09456fec9d","665fa6c6de2c89d3d93c9f0f","0","1","","","[2,0]","right","[1,0]","0","false","3487.899999856949","0.9907407407407407","1552.2000000476837",""
"","","","","","jsShapes","11","98917","0.0-3.0-0.8","665f9ff8981f9a2e65a2cccc","6615c429a31a4c09456fec9d","665fa6c6de2c89d3d93c9f0f","0","1","","","[1,0]","left","[1,0]","1","false","4665.799999952316","1","1223",""
"","","","","","jsShapes","12","102317","0.0-3.0-0.9","665f9ff8981f9a2e65a2cccc","6615c429a31a4c09456fec9d","665fa6c6de2c89d3d93c9f0f","0","1","","","[0,1]","left","[2,0]","1","false","2254.5999999046326","1","1130.2000000476837",""
"","","","","","jsShapes","13","105416","0.0-3.0-0.10","665f9ff8981f9a2e65a2cccc","6615c429a31a4c09456fec9d","665fa6c6de2c89d3d93c9f0f","0","1","","","[0,1]","right","[3,1]","1","false","2048.7000000476837","1","1035.0999999046326",""
"","","","","","jsShapes","14","111683","0.0-3.0-0.11","665f9ff8981f9a2e65a2cccc","6615c429a31a4c09456fec9d","665fa6c6de2c89d3d93c9f0f","0","1","","","[2,4]","right","[3,1]","1","false","4967","0.9722222222222222","1284.5",""
"","","","","","jsShapes","15","115067","0.0-3.0-0.12","665f9ff8981f9a2e65a2cccc","6615c429a31a4c09456fec9d","665fa6c6de2c89d3d93c9f0f","0","1","","","[0,1]","left","[3,0]","1","false","2196.5999999046326","0.9944444444444445","1169.7999999523163",""
"","","","","","jsShapes","16","119133","0.0-3.0-0.13","665f9ff8981f9a2e65a2cccc","6615c429a31a4c09456fec9d","665fa6c6de2c89d3d93c9f0f","0","1","","","[2,3]","right","[1,4]","0","false","2711.9000000953674","0.9888888888888889","1342.7000000476837",""
"","","","","","jsShapes","17","122249","0.0-3.0-0.14","665f9ff8981f9a2e65a2cccc","6615c429a31a4c09456fec9d","665fa6c6de2c89d3d93c9f0f","0","1","","","[1,3]","left","[2,0]","1","false","2013","1","1096.7999999523163",""
"","","","","","jsShapes","18","126299","0.0-3.0-0.15","665f9ff8981f9a2e65a2cccc","6615c429a31a4c09456fec9d","665fa6c6de2c89d3d93c9f0f","0","1","","","[0,1]","right","[3,1]","1","false","3004.2000000476837","1","1042.2999999523163",""
"","","","","","instructions","19","133848","0.0-4.0","665f9ff8981f9a2e65a2cccc","6615c429a31a4c09456fec9d","665fa6c6de2c89d3d93c9f0f","0","1","7548","[{""page_index"":0,""viewing_time"":7548}]","","","","","","","","",""
"","","","","","survey-multi-choice","20","139304","0.0-5.0-1.0-0.0","665f9ff8981f9a2e65a2cccc","6615c429a31a4c09456fec9d","665fa6c6de2c89d3d93c9f0f","0","1","5455","","","","","{""multichoice_rare_shape"":""2. Much less likely than all other shapes.""}","","","","","[0]"
"","","","","","instructions","21","143559","0.0-6.0","665f9ff8981f9a2e65a2cccc","6615c429a31a4c09456fec9d","665fa6c6de2c89d3d93c9f0f","0","1","4254","[{""page_index"":0,""viewing_time"":4254}]","","","","","","","","",""
"","","","","","jsShapes","22","151565","0.0-7.0-0.0","665f9ff8981f9a2e65a2cccc","6615c429a31a4c09456fec9d","665fa6c6de2c89d3d93c9f0f","0","1","","","[3,4]","left","[5,0]","0","true","6209.200000047684","1","1792.4000000953674",""
"","","","","","survey-text","23","153699","0.0-8.0","665f9ff8981f9a2e65a2cccc","6615c429a31a4c09456fec9d","665fa6c6de2c89d3d93c9f0f","0","1","2131","","","","","{""worker_comments"":""""}","","","","",""
"","","","","","instructions","24","156942","0.0-9.0","665f9ff8981f9a2e65a2cccc","6615c429a31a4c09456fec9d","665fa6c6de2c89d3d93c9f0f","0","1","3242","[{""page_index"":0,""viewing_time"":3242}]","","","","","","","","",""
"success","timeout","failed_images","failed_audio","failed_video","trial_type","trial_index","time_elapsed","internal_node_id","STUDY_ID","PROLIFIC_PID","SESSION_ID","practice_rare_shape_loops","comprehension_visits","rt","view_history","shapes","occluder","options","response","rare_option","RT","confidence","confidence_RT","question_order"
"true","false","[]","[]","[]","preload","0","126","0.0-0.0","665f9ff8981f9a2e65a2cccc","6638d78013ef827d3f189301","665fa16337fcbd1a76ca3c5d","0","1","","","","","","","","","","",""
"true","","","","","fullscreen","1","6428","0.0-1.0","665f9ff8981f9a2e65a2cccc","6638d78013ef827d3f189301","665fa16337fcbd1a76ca3c5d","0","1","5297","","","","","","","","","",""
"","","","","","instructions","2","52088","0.0-2.0","665f9ff8981f9a2e65a2cccc","6638d78013ef827d3f189301","665fa16337fcbd1a76ca3c5d","0","1","45659","[{""page_index"":0,""viewing_time"":7276},{""page_index"":1,""viewing_time"":23536},{""page_index"":2,""viewing_time"":10078},{""page_index"":3,""viewing_time"":2464},{""page_index"":4,""viewing_time"":2304}]","","","","","","","","",""
"","","","","","jsShapes","3","69457","0.0-3.0-0.0","665f9ff8981f9a2e65a2cccc","6638d78013ef827d3f189301","665fa16337fcbd1a76ca3c5d","0","1","","","[0,1]","right","[1,0]","0","false","12668.90000000596","1","4661.699999988079",""
"","","","","","jsShapes","4","100974","0.0-3.0-0.1","665f9ff8981f9a2e65a2cccc","6638d78013ef827d3f189301","665fa16337fcbd1a76ca3c5d","0","1","","","[0,1]","left","[1,0]","1","false","30057.40000000596","1","1443.4000000059605",""
"","","","","","jsShapes","5","128674","0.0-3.0-0.2","665f9ff8981f9a2e65a2cccc","6638d78013ef827d3f189301","665fa16337fcbd1a76ca3c5d","0","1","","","[2,2]","right","[0,1]","0","false","25754.59999999404","0","1926.5",""
"","","","","","jsShapes","6","139807","0.0-3.0-0.3","665f9ff8981f9a2e65a2cccc","6638d78013ef827d3f189301","665fa16337fcbd1a76ca3c5d","0","1","","","[2,3]","left","[0,2]","1","false","10032.799999982119","0","1088.300000011921",""
"","","","","","jsShapes","7","151141","0.0-3.0-0.4","665f9ff8981f9a2e65a2cccc","6638d78013ef827d3f189301","665fa16337fcbd1a76ca3c5d","0","1","","","[4,0]","right","[1,2]","1","false","10318.699999988079","0","1007.5",""
"","","","","","jsShapes","8","158574","0.0-3.0-0.5","665f9ff8981f9a2e65a2cccc","6638d78013ef827d3f189301","665fa16337fcbd1a76ca3c5d","0","1","","","[0,1]","left","[0,3]","1","false","6452.9000000059605","0","965.3000000119209",""
"","","","","","jsShapes","9","165924","0.0-3.0-0.6","665f9ff8981f9a2e65a2cccc","6638d78013ef827d3f189301","665fa16337fcbd1a76ca3c5d","0","1","","","[0,1]","right","[1,0]","0","false","5603.0999999940395","1","1739.6000000238419",""
"","","","","","jsShapes","10","178342","0.0-3.0-0.7","665f9ff8981f9a2e65a2cccc","6638d78013ef827d3f189301","665fa16337fcbd1a76ca3c5d","0","1","","","[2,2]","left","[3,0]","0","false","11460.800000011921","0","952.0999999940395",""
"","","","","","jsShapes","11","186158","0.0-3.0-0.8","665f9ff8981f9a2e65a2cccc","6638d78013ef827d3f189301","665fa16337fcbd1a76ca3c5d","0","1","","","[3,4]","left","[0,3]","0","false","6806","0","997.1999999880791",""
"","","","","","jsShapes","12","192508","0.0-3.0-0.9","665f9ff8981f9a2e65a2cccc","6638d78013ef827d3f189301","665fa16337fcbd1a76ca3c5d","0","1","","","[0,1]","right","[1,0]","0","false","5345.5999999940395","1","994.2000000178814",""
"","","","","","jsShapes","13","197625","0.0-3.0-0.10","665f9ff8981f9a2e65a2cccc","6638d78013ef827d3f189301","665fa16337fcbd1a76ca3c5d","0","1","","","[4,3]","right","[3,1]","0","false","4171.300000011921","0","940.9000000059605",""
"","","","","","jsShapes","14","204292","0.0-3.0-0.11","665f9ff8981f9a2e65a2cccc","6638d78013ef827d3f189301","665fa16337fcbd1a76ca3c5d","0","1","","","[0,1]","left","[0,4]","0","false","5737.5","1","917.2999999821186",""
"","","","","","jsShapes","15","211242","0.0-3.0-0.12","665f9ff8981f9a2e65a2cccc","6638d78013ef827d3f189301","665fa16337fcbd1a76ca3c5d","0","1","","","[0,1]","left","[0,2]","0","false","5932.9000000059605","1","1008.5",""
"","","","","","jsShapes","16","217742","0.0-3.0-0.13","665f9ff8981f9a2e65a2cccc","6638d78013ef827d3f189301","665fa16337fcbd1a76ca3c5d","0","1","","","[1,0]","left","[0,2]","1","false","5442.200000017881","0","1051.699999988079",""
"","","","","","jsShapes","17","231142","0.0-3.0-0.14","665f9ff8981f9a2e65a2cccc","6638d78013ef827d3f189301","665fa16337fcbd1a76ca3c5d","0","1","","","[4,4]","right","[0,1]","0","false","11123.300000011921","0.1444444444444445","2265.9000000059605",""
"","","","","","jsShapes","18","237709","0.0-3.0-0.15","665f9ff8981f9a2e65a2cccc","6638d78013ef827d3f189301","665fa16337fcbd1a76ca3c5d","0","1","","","[0,1]","right","[1,0]","0","false","5711.799999982119","1","839.8000000119209",""
"","","","","","instructions","19","250033","0.0-4.0","665f9ff8981f9a2e65a2cccc","6638d78013ef827d3f189301","665fa16337fcbd1a76ca3c5d","0","1","12323","[{""page_index"":0,""viewing_time"":12323}]","","","","","","","","",""
"","","","","","survey-multi-choice","20","260330","0.0-5.0-1.0-0.0","665f9ff8981f9a2e65a2cccc","6638d78013ef827d3f189301","665fa16337fcbd1a76ca3c5d","0","1","10295","","","","","{""multichoice_rare_shape"":""2. Much less likely than all other shapes.""}","","","","","[0]"
"","","","","","instructions","21","267478","0.0-6.0","665f9ff8981f9a2e65a2cccc","6638d78013ef827d3f189301","665fa16337fcbd1a76ca3c5d","0","1","7147","[{""page_index"":0,""viewing_time"":7146}]","","","","","","","","",""
"","","","","","jsShapes","22","282659","0.0-7.0-0.0","665f9ff8981f9a2e65a2cccc","6638d78013ef827d3f189301","665fa16337fcbd1a76ca3c5d","0","1","","","[2,4]","left","[5,0]","1","true","13351.100000023842","0","1818.0999999940395",""
"","","","","","survey-text","23","332713","0.0-8.0","665f9ff8981f9a2e65a2cccc","6638d78013ef827d3f189301","665fa16337fcbd1a76ca3c5d","0","1","50052","","","","","{""worker_comments"":""Other then following the rule i was not sure about the answers given, I was thinking of the first shapes that was displayed but did not remember them by heart""}","","","","",""
"","","","","","instructions","24","335281","0.0-9.0","665f9ff8981f9a2e65a2cccc","6638d78013ef827d3f189301","665fa16337fcbd1a76ca3c5d","0","1","2568","[{""page_index"":0,""viewing_time"":2568}]","","","","","","","","",""
"success","timeout","failed_images","failed_audio","failed_video","trial_type","trial_index","time_elapsed","internal_node_id","STUDY_ID","PROLIFIC_PID","SESSION_ID","practice_rare_shape_loops","comprehension_visits","rt","view_history","shapes","occluder","options","response","rare_option","RT","confidence","confidence_RT","question_order"
"true","false","[]","[]","[]","preload","0","210","0.0-0.0","665f9ff8981f9a2e65a2cccc","5934fb0a67011200014d3a50","665fb45cd638be37ca01be7b","0","1","","","","","","","","","","",""
"true","","","","","fullscreen","1","5627","0.0-1.0","665f9ff8981f9a2e65a2cccc","5934fb0a67011200014d3a50","665fb45cd638be37ca01be7b","0","1","4414","","","","","","","","","",""
"","","","","","instructions","2","38992","0.0-2.0","665f9ff8981f9a2e65a2cccc","5934fb0a67011200014d3a50","665fb45cd638be37ca01be7b","0","1","33364","[{""page_index"":0,""viewing_time"":2989},{""page_index"":1,""viewing_time"":21136},{""page_index"":2,""viewing_time"":6681},{""page_index"":3,""viewing_time"":1708},{""page_index"":4,""viewing_time"":850}]","","","","","","","","",""
"","","","","","jsShapes","3","52219","0.0-3.0-0.0","665f9ff8981f9a2e65a2cccc","5934fb0a67011200014d3a50","665fb45cd638be37ca01be7b","0","1","","","[0,1]","right","[1,2]","0","false","9369.099999904633","0","3834.2999999523163",""
"","","","","","jsShapes","4","58752","0.0-3.0-0.1","665f9ff8981f9a2e65a2cccc","5934fb0a67011200014d3a50","665fb45cd638be37ca01be7b","0","1","","","[4,4]","left","[2,0]","1","false","4270.299999952316","0","2251.2000000476837",""
"","","","","","jsShapes","5","68402","0.0-3.0-0.2","665f9ff8981f9a2e65a2cccc","5934fb0a67011200014d3a50","665fb45cd638be37ca01be7b","0","1","","","[0,1]","left","[0,4]","0","false","8371.599999904633","1","1262",""
"","","","","","jsShapes","6","73102","0.0-3.0-0.3","665f9ff8981f9a2e65a2cccc","5934fb0a67011200014d3a50","665fb45cd638be37ca01be7b","0","1","","","[4,4]","right","[1,0]","0","false","3690.2000000476837","0","993.2999999523163",""
"","","","","","jsShapes","7","83452","0.0-3.0-0.4","665f9ff8981f9a2e65a2cccc","5934fb0a67011200014d3a50","665fb45cd638be37ca01be7b","0","1","","","[3,2]","left","[0,1]","0","false","9031.399999856949","0.15111111111111108","1315.1000001430511",""
"","","","","","jsShapes","8","93601","0.0-3.0-0.5","665f9ff8981f9a2e65a2cccc","5934fb0a67011200014d3a50","665fb45cd638be37ca01be7b","0","1","","","[0,1]","right","[3,1]","0","false","7990.400000095367","0.0377777777777778","2150.0999999046326",""
"","","","","","jsShapes","9","96568","0.0-3.0-0.6","665f9ff8981f9a2e65a2cccc","5934fb0a67011200014d3a50","665fb45cd638be37ca01be7b","0","1","","","[3,3]","right","[4,1]","0","false","2238","0.06666666666666665","724.2999999523163",""
"","","","","","jsShapes","10","105785","0.0-3.0-0.7","665f9ff8981f9a2e65a2cccc","5934fb0a67011200014d3a50","665fb45cd638be37ca01be7b","0","1","","","[0,1]","left","[0,2]","1","false","7817.700000047684","0.05555555555555558","1388.2999999523163",""
"","","","","","jsShapes","11","113485","0.0-3.0-0.8","665f9ff8981f9a2e65a2cccc","5934fb0a67011200014d3a50","665fb45cd638be37ca01be7b","0","1","","","[0,1]","right","[0,1]","1","false","6184","1","1507.7000000476837",""
"","","","","","jsShapes","12","118284","0.0-3.0-0.9","665f9ff8981f9a2e65a2cccc","5934fb0a67011200014d3a50","665fb45cd638be37ca01be7b","0","1","","","[0,1]","left","[3,0]","0","false","3934.300000190735","0","863",""
"","","","","","jsShapes","13","122468","0.0-3.0-0.10","665f9ff8981f9a2e65a2cccc","5934fb0a67011200014d3a50","665fb45cd638be37ca01be7b","0","1","","","[4,0]","right","[1,2]","1","false","3110.800000190735","0.6488888888888888","1057.0999999046326",""
"","","","","","jsShapes","14","126385","0.0-3.0-0.11","665f9ff8981f9a2e65a2cccc","5934fb0a67011200014d3a50","665fb45cd638be37ca01be7b","0","1","","","[4,4]","left","[4,0]","1","false","3004.2999999523163","1","900.5999999046326",""
"","","","","","jsShapes","15","130551","0.0-3.0-0.12","665f9ff8981f9a2e65a2cccc","5934fb0a67011200014d3a50","665fb45cd638be37ca01be7b","0","1","","","[4,3]","left","[3,0]","1","false","3256.7999999523163","0.9644444444444444","897.3999998569489",""
"","","","","","jsShapes","16","135301","0.0-3.0-0.13","665f9ff8981f9a2e65a2cccc","5934fb0a67011200014d3a50","665fb45cd638be37ca01be7b","0","1","","","[4,3]","right","[0,1]","1","false","3603.5","0.9044444444444444","1136.2999999523163",""
"","","","","","jsShapes","17","140100","0.0-3.0-0.14","665f9ff8981f9a2e65a2cccc","5934fb0a67011200014d3a50","665fb45cd638be37ca01be7b","0","1","","","[0,1]","right","[1,4]","0","false","3910.2000000476837","0","880",""
"","","","","","jsShapes","18","143551","0.0-3.0-0.15","665f9ff8981f9a2e65a2cccc","5934fb0a67011200014d3a50","665fb45cd638be37ca01be7b","0","1","","","[0,1]","left","[2,0]","1","false","2677.9000000953674","0.47777777777777775","758.0999999046326",""
"","","","","","instructions","19","152539","0.0-4.0","665f9ff8981f9a2e65a2cccc","5934fb0a67011200014d3a50","665fb45cd638be37ca01be7b","0","1","8988","[{""page_index"":0,""viewing_time"":8987}]","","","","","","","","",""
"","","","","","survey-multi-choice","20","158668","0.0-5.0-1.0-0.0","665f9ff8981f9a2e65a2cccc","5934fb0a67011200014d3a50","665fb45cd638be37ca01be7b","0","1","6129","","","","","{""multichoice_rare_shape"":""2. Much less likely than all other shapes.""}","","","","","[0]"
"","","","","","instructions","21","166083","0.0-6.0","665f9ff8981f9a2e65a2cccc","5934fb0a67011200014d3a50","665fb45cd638be37ca01be7b","0","1","7413","[{""page_index"":0,""viewing_time"":7413}]","","","","","","","","",""
"","","","","","jsShapes","22","170666","0.0-7.0-0.0","665f9ff8981f9a2e65a2cccc","5934fb0a67011200014d3a50","665fb45cd638be37ca01be7b","0","1","","","[2,2]","left","[0,5]","1","true","3658.7000000476837","0.015555555555555545","908.3999998569489",""
"","","","","","survey-text","23","173688","0.0-8.0","665f9ff8981f9a2e65a2cccc","5934fb0a67011200014d3a50","665fb45cd638be37ca01be7b","0","1","3017","","","","","{""worker_comments"":""""}","","","","",""
"","","","","","instructions","24","175919","0.0-9.0","665f9ff8981f9a2e65a2cccc","5934fb0a67011200014d3a50","665fb45cd638be37ca01be7b","0","1","2231","[{""page_index"":0,""viewing_time"":2231}]","","","","","","","","",""
"success","timeout","failed_images","failed_audio","failed_video","trial_type","trial_index","time_elapsed","internal_node_id","STUDY_ID","PROLIFIC_PID","SESSION_ID","practice_rare_shape_loops","comprehension_visits","rt","view_history","shapes","occluder","options","response","rare_option","RT","confidence","confidence_RT","question_order"
"true","false","[]","[]","[]","preload","0","43","0.0-0.0","665f9ff8981f9a2e65a2cccc","65200e672ee29200361b793b","665fa61f405c1da6eb29ae24","0","1","","","","","","","","","","",""
"true","","","","","fullscreen","1","15403","0.0-1.0","665f9ff8981f9a2e65a2cccc","65200e672ee29200361b793b","665fa61f405c1da6eb29ae24","0","1","14353","","","","","","","","","",""
"","","","","","instructions","2","66359","0.0-2.0","665f9ff8981f9a2e65a2cccc","65200e672ee29200361b793b","665fa61f405c1da6eb29ae24","0","1","50955","[{""page_index"":0,""viewing_time"":5500},{""page_index"":1,""viewing_time"":32303},{""page_index"":2,""viewing_time"":9906},{""page_index"":3,""viewing_time"":2063},{""page_index"":4,""viewing_time"":1182}]","","","","","","","","",""
"","","","","","jsShapes","3","75049","0.0-3.0-0.0","665f9ff8981f9a2e65a2cccc","65200e672ee29200361b793b","665fa61f405c1da6eb29ae24","0","1","","","[0,1]","left","[0,1]","0","false","5610.20000000007","1","3056.899999999907",""
"","","","","","jsShapes","4","80410","0.0-3.0-0.1","665f9ff8981f9a2e65a2cccc","65200e672ee29200361b793b","665fa61f405c1da6eb29ae24","0","1","","","[0,1]","right","[0,1]","1","false","3156.9000000000233","0.9699074074074074","2195.5",""
"","","","","","jsShapes","5","94381","0.0-3.0-0.2","665f9ff8981f9a2e65a2cccc","65200e672ee29200361b793b","665fa61f405c1da6eb29ae24","0","1","","","[2,3]","left","[3,0]","0","false","12176.79999999993","0.9976851851851852","1783.7000000000698",""
"","","","","","jsShapes","6","113163","0.0-3.0-0.3","665f9ff8981f9a2e65a2cccc","65200e672ee29200361b793b","665fa61f405c1da6eb29ae24","0","1","","","[4,4]","right","[1,2]","1","false","16442.800000000047","0.44907407407407407","2331.8000000000466",""
"","","","","","jsShapes","7","122088","0.0-3.0-0.4","665f9ff8981f9a2e65a2cccc","65200e672ee29200361b793b","665fa61f405c1da6eb29ae24","0","1","","","[0,1]","right","[1,0]","0","false","7126.599999999977","0.9953703703703703","1791.7000000000698",""
"","","","","","jsShapes","8","129764","0.0-3.0-0.5","665f9ff8981f9a2e65a2cccc","65200e672ee29200361b793b","665fa61f405c1da6eb29ae24","0","1","","","[2,0]","left","[3,0]","0","false","6482.099999999977","0","1184.6999999999534",""
"","","","","","jsShapes","9","137074","0.0-3.0-0.6","665f9ff8981f9a2e65a2cccc","65200e672ee29200361b793b","665fa61f405c1da6eb29ae24","0","1","","","[0,1]","left","[4,0]","1","false","6032.5","0.48611111111111116","1262.6999999999534",""
"","","","","","jsShapes","10","146881","0.0-3.0-0.7","665f9ff8981f9a2e65a2cccc","65200e672ee29200361b793b","665fa61f405c1da6eb29ae24","0","1","","","[1,2]","right","[1,0]","1","false","8696","0.00462962962962965","1105",""
"","","","","","jsShapes","11","157121","0.0-3.0-0.8","665f9ff8981f9a2e65a2cccc","65200e672ee29200361b793b","665fa61f405c1da6eb29ae24","0","1","","","[4,2]","right","[2,1]","0","false","9048.29999999993","0","1183.7000000000698",""
"","","","","","jsShapes","12","162983","0.0-3.0-0.9","665f9ff8981f9a2e65a2cccc","65200e672ee29200361b793b","665fa61f405c1da6eb29ae24","0","1","","","[2,3]","left","[0,2]","1","false","4555.199999999953","0.0092592592592593","1294.1000000000931",""
"","","","","","jsShapes","13","170892","0.0-3.0-0.10","665f9ff8981f9a2e65a2cccc","65200e672ee29200361b793b","665fa61f405c1da6eb29ae24","0","1","","","[0,1]","right","[1,4]","0","false","6431.300000000047","0.9907407407407407","1468.3000000000466",""
"","","","","","jsShapes","14","183247","0.0-3.0-0.11","665f9ff8981f9a2e65a2cccc","65200e672ee29200361b793b","665fa61f405c1da6eb29ae24","0","1","","","[0,1]","left","[1,0]","1","false","5814.899999999907","0.9907407407407407","6535.400000000023",""
"","","","","","jsShapes","15","192489","0.0-3.0-0.12","665f9ff8981f9a2e65a2cccc","65200e672ee29200361b793b","665fa61f405c1da6eb29ae24","0","1","","","[2,3]","right","[4,1]","0","false","7937.100000000093","0","1290.5999999999767",""
"","","","","","jsShapes","16","198117","0.0-3.0-0.13","665f9ff8981f9a2e65a2cccc","65200e672ee29200361b793b","665fa61f405c1da6eb29ae24","0","1","","","[0,1]","left","[0,1]","0","false","4179.900000000023","1","1438.0999999999767",""
"","","","","","jsShapes","17","205810","0.0-3.0-0.14","665f9ff8981f9a2e65a2cccc","65200e672ee29200361b793b","665fa61f405c1da6eb29ae24","0","1","","","[2,0]","left","[0,2]","1","false","5851.599999999977","0.02777777777777779","1822.8000000000466",""
"","","","","","jsShapes","18","211821","0.0-3.0-0.15","665f9ff8981f9a2e65a2cccc","65200e672ee29200361b793b","665fa61f405c1da6eb29ae24","0","1","","","[0,1]","right","[1,4]","0","false","4819.199999999953","0.9907407407407407","1190",""
"","","","","","instructions","19","218721","0.0-4.0","665f9ff8981f9a2e65a2cccc","65200e672ee29200361b793b","665fa61f405c1da6eb29ae24","0","1","6900","[{""page_index"":0,""viewing_time"":6900}]","","","","","","","","",""
"","","","","","survey-multi-choice","20","226253","0.0-5.0-1.0-0.0","665f9ff8981f9a2e65a2cccc","65200e672ee29200361b793b","665fa61f405c1da6eb29ae24","0","1","7517","","","","","{""multichoice_rare_shape"":""2. Much less likely than all other shapes.""}","","","","","[0]"
"","","","","","instructions","21","231352","0.0-6.0","665f9ff8981f9a2e65a2cccc","65200e672ee29200361b793b","665fa61f405c1da6eb29ae24","0","1","5098","[{""page_index"":0,""viewing_time"":5098}]","","","","","","","","",""
"","","","","","jsShapes","22","244940","0.0-7.0-0.0","665f9ff8981f9a2e65a2cccc","65200e672ee29200361b793b","665fa61f405c1da6eb29ae24","0","1","","","[2,2]","left","[0,5]","1","true","12316.29999999993","0.9907407407407407","1262.5",""
"","","","","","survey-text","23","261661","0.0-8.0","665f9ff8981f9a2e65a2cccc","65200e672ee29200361b793b","665fa61f405c1da6eb29ae24","0","1","16715","","","","","{""worker_comments"":""I found this a little confusing.""}","","","","",""
"","","","","","instructions","24","265899","0.0-9.0","665f9ff8981f9a2e65a2cccc","65200e672ee29200361b793b","665fa61f405c1da6eb29ae24","0","1","4238","[{""page_index"":0,""viewing_time"":4238}]","","","","","","","","",""
"success","timeout","failed_images","failed_audio","failed_video","trial_type","trial_index","time_elapsed","internal_node_id","STUDY_ID","PROLIFIC_PID","SESSION_ID","practice_rare_shape_loops","comprehension_visits","rt","view_history","shapes","occluder","options","response","rare_option","RT","confidence","confidence_RT","question_order"
"true","false","[]","[]","[]","preload","0","93","0.0-0.0","665f9ff8981f9a2e65a2cccc","5e9217ae73c54f553335fb28","665fb45fb7b9bf65f02213ba","0","1","","","","","","","","","","",""
"true","","","","","fullscreen","1","3455","0.0-1.0","665f9ff8981f9a2e65a2cccc","5e9217ae73c54f553335fb28","665fb45fb7b9bf65f02213ba","0","1","2360","","","","","","","","","",""
"","","","","","instructions","2","22452","0.0-2.0","665f9ff8981f9a2e65a2cccc","5e9217ae73c54f553335fb28","665fb45fb7b9bf65f02213ba","0","1","18996","[{""page_index"":0,""viewing_time"":1882},{""page_index"":1,""viewing_time"":7733},{""page_index"":2,""viewing_time"":7035},{""page_index"":3,""viewing_time"":1486},{""page_index"":4,""viewing_time"":861}]","","","","","","","","",""
"","","","","","jsShapes","3","34752","0.0-3.0-0.0","665f9ff8981f9a2e65a2cccc","5e9217ae73c54f553335fb28","665fb45fb7b9bf65f02213ba","0","1","","","[1,0]","left","[0,3]","1","false","9011.900000095367","1","3263.5",""
"","","","","","jsShapes","4","47818","0.0-3.0-0.1","665f9ff8981f9a2e65a2cccc","5e9217ae73c54f553335fb28","665fb45fb7b9bf65f02213ba","0","1","","","[0,1]","left","[1,0]","1","false","9748.799999952316","0.012027491418244995","3302.7000000476837",""
"","","","","","jsShapes","5","52401","0.0-3.0-0.2","665f9ff8981f9a2e65a2cccc","5e9217ae73c54f553335fb28","665fb45fb7b9bf65f02213ba","0","1","","","[0,1]","right","[4,1]","1","false","2659.0999999046326","0.9904717275944399","1900.5999999046326",""
"","","","","","jsShapes","6","59134","0.0-3.0-0.3","665f9ff8981f9a2e65a2cccc","5e9217ae73c54f553335fb28","665fb45fb7b9bf65f02213ba","0","1","","","[2,3]","right","[4,1]","1","false","4606.700000047684","0.008278662927148517","2104.2999999523163",""
"","","","","","jsShapes","7","67050","0.0-3.0-0.4","665f9ff8981f9a2e65a2cccc","5e9217ae73c54f553335fb28","665fb45fb7b9bf65f02213ba","0","1","","","[2,2]","left","[2,0]","0","false","4144.099999904633","1","3754.2000000476837",""
"","","","","","jsShapes","8","71483","0.0-3.0-0.5","665f9ff8981f9a2e65a2cccc","5e9217ae73c54f553335fb28","665fb45fb7b9bf65f02213ba","0","1","","","[1,0]","right","[1,0]","1","false","2728.4000000953674","0.010153077172696756","1683.2999999523163",""
"","","","","","jsShapes","9","76233","0.0-3.0-0.6","665f9ff8981f9a2e65a2cccc","5e9217ae73c54f553335fb28","665fb45fb7b9bf65f02213ba","0","1","","","[0,1]","right","[1,4]","0","false","2508.7999999523163","0.9904717275944399","2222.5",""
"","","","","","jsShapes","10","80383","0.0-3.0-0.7","665f9ff8981f9a2e65a2cccc","5e9217ae73c54f553335fb28","665fb45fb7b9bf65f02213ba","0","1","","","[0,1]","left","[0,1]","0","false","2297.100000143051","0.9885973133488917","1835",""
"","","","","","jsShapes","11","84533","0.0-3.0-0.8","665f9ff8981f9a2e65a2cccc","5e9217ae73c54f553335fb28","665fb45fb7b9bf65f02213ba","0","1","","","[0,1]","right","[1,4]","0","false","2220.0999999046326","0.9998437988221813","1909",""
"","","","","","jsShapes","12","90465","0.0-3.0-0.9","665f9ff8981f9a2e65a2cccc","5e9217ae73c54f553335fb28","665fb45fb7b9bf65f02213ba","0","1","","","[3,0]","left","[0,2]","1","false","4419.599999904633","0.9848484848577952","1495.7000000476837",""
"","","","","","jsShapes","13","96049","0.0-3.0-0.10","665f9ff8981f9a2e65a2cccc","5e9217ae73c54f553335fb28","665fb45fb7b9bf65f02213ba","0","1","","","[0,1]","left","[0,1]","0","false","3324","0.023273976891534653","2237.5",""
"","","","","","jsShapes","14","101948","0.0-3.0-0.11","665f9ff8981f9a2e65a2cccc","5e9217ae73c54f553335fb28","665fb45fb7b9bf65f02213ba","0","1","","","[4,4]","right","[4,1]","0","false","2399.4000000953674","0.02889721962817937","3481.0999999046326",""
"","","","","","jsShapes","15","106265","0.0-3.0-0.12","665f9ff8981f9a2e65a2cccc","5e9217ae73c54f553335fb28","665fb45fb7b9bf65f02213ba","0","1","","","[0,1]","right","[2,1]","1","false","2243","0.9867228991033434","2060.4000000953674",""
"","","","","","jsShapes","16","110381","0.0-3.0-0.13","665f9ff8981f9a2e65a2cccc","5e9217ae73c54f553335fb28","665fb45fb7b9bf65f02213ba","0","1","","","[0,1]","left","[3,0]","1","false","2307.0999999046326","0.019525148400438064","1785.1000001430511",""
"","","","","","jsShapes","17","114598","0.0-3.0-0.14","665f9ff8981f9a2e65a2cccc","5e9217ae73c54f553335fb28","665fb45fb7b9bf65f02213ba","0","1","","","[1,0]","left","[0,3]","1","false","2452.5999999046326","0.997969384576633","1736.2999999523163",""
"","","","","","jsShapes","18","119814","0.0-3.0-0.15","665f9ff8981f9a2e65a2cccc","5e9217ae73c54f553335fb28","665fb45fb7b9bf65f02213ba","0","1","","","[2,4]","right","[0,1]","0","false","3158.2000000476837","0.023273976891534653","2036.5999999046326",""
"","","","","","instructions","19","126167","0.0-4.0","665f9ff8981f9a2e65a2cccc","5e9217ae73c54f553335fb28","665fb45fb7b9bf65f02213ba","0","1","6352","[{""page_index"":0,""viewing_time"":6352}]","","","","","","","","",""
"","","","","","survey-multi-choice","20","134273","0.0-5.0-1.0-0.0","665f9ff8981f9a2e65a2cccc","5e9217ae73c54f553335fb28","665fb45fb7b9bf65f02213ba","0","1","8105","","","","","{""multichoice_rare_shape"":""2. Much less likely than all other shapes.""}","","","","","[0]"
"","","","","","instructions","21","138537","0.0-6.0","665f9ff8981f9a2e65a2cccc","5e9217ae73c54f553335fb28","665fb45fb7b9bf65f02213ba","0","1","4262","[{""page_index"":0,""viewing_time"":4261}]","","","","","","","","",""
"","","","","","jsShapes","22","152112","0.0-7.0-0.0","665f9ff8981f9a2e65a2cccc","5e9217ae73c54f553335fb28","665fb45fb7b9bf65f02213ba","0","1","","","[3,2]","left","[5,0]","0","true","11018.299999952316","0.9810996563666986","2542.7000000476837",""
"","","","","","survey-text","23","166777","0.0-8.0","665f9ff8981f9a2e65a2cccc","5e9217ae73c54f553335fb28","665fb45fb7b9bf65f02213ba","0","1","14662","","","","","{""worker_comments"":""""}","","","","",""
"","","","","","instructions","24","169730","0.0-9.0","665f9ff8981f9a2e65a2cccc","5e9217ae73c54f553335fb28","665fb45fb7b9bf65f02213ba","0","1","2952","[{""page_index"":0,""viewing_time"":2952}]","","","","","","","","",""
"success","timeout","failed_images","failed_audio","failed_video","trial_type","trial_index","time_elapsed","internal_node_id","STUDY_ID","PROLIFIC_PID","SESSION_ID","practice_rare_shape_loops","comprehension_visits","rt","view_history","shapes","occluder","options","response","rare_option","RT","confidence","confidence_RT","question_order"
"true","false","[]","[]","[]","preload","0","297","0.0-0.0","665f9ff8981f9a2e65a2cccc","5fddbd1d3986cc447456edb7","665fa666f4edccc3ad8de3c3","0","1","","","","","","","","","","",""
"true","","","","","fullscreen","1","4447","0.0-1.0","665f9ff8981f9a2e65a2cccc","5fddbd1d3986cc447456edb7","665fa666f4edccc3ad8de3c3","0","1","3149","","","","","","","","","",""
"","","","","","instructions","2","35721","0.0-2.0","665f9ff8981f9a2e65a2cccc","5fddbd1d3986cc447456edb7","665fa666f4edccc3ad8de3c3","0","1","31272","[{""page_index"":0,""viewing_time"":2504},{""page_index"":1,""viewing_time"":14023},{""page_index"":2,""viewing_time"":5578},{""page_index"":1,""viewing_time"":7162},{""page_index"":2,""viewing_time"":455},{""page_index"":3,""viewing_time"":1000},{""page_index"":4,""viewing_time"":551}]","","","","","","","","",""
"","","","","","jsShapes","3","46867","0.0-3.0-0.0","665f9ff8981f9a2e65a2cccc","5fddbd1d3986cc447456edb7","665fa666f4edccc3ad8de3c3","0","1","","","[4,0]","right","[1,4]","1","false","6751.899999976158","0.34444444444444444","4382.700000047684",""
"","","","","","jsShapes","4","51851","0.0-3.0-0.1","665f9ff8981f9a2e65a2cccc","5fddbd1d3986cc447456edb7","665fa666f4edccc3ad8de3c3","0","1","","","[1,4]","left","[2,0]","0","false","3558.5","0.4638888888888889","1405.5",""
"","","","","","jsShapes","5","56951","0.0-3.0-0.2","665f9ff8981f9a2e65a2cccc","5fddbd1d3986cc447456edb7","665fa666f4edccc3ad8de3c3","0","1","","","[0,1]","right","[1,4]","0","false","2988.7999999523163","1","2097.5",""
"","","","","","jsShapes","6","61401","0.0-3.0-0.3","665f9ff8981f9a2e65a2cccc","5fddbd1d3986cc447456edb7","665fa666f4edccc3ad8de3c3","0","1","","","[0,1]","left","[3,0]","1","false","3046.899999976158","1","1390.2999999523163",""
"","","","","","jsShapes","7","64851","0.0-3.0-0.4","665f9ff8981f9a2e65a2cccc","5fddbd1d3986cc447456edb7","665fa666f4edccc3ad8de3c3","0","1","","","[0,1]","left","[3,0]","1","false","2341.899999976158","1","1095.3000000715256",""
"","","","","","jsShapes","8","68585","0.0-3.0-0.5","665f9ff8981f9a2e65a2cccc","5fddbd1d3986cc447456edb7","665fa666f4edccc3ad8de3c3","0","1","","","[3,4]","right","[4,1]","0","false","2452.5","0.44166666666666665","1262.3000000715256",""
"","","","","","jsShapes","9","72418","0.0-3.0-0.6","665f9ff8981f9a2e65a2cccc","5fddbd1d3986cc447456edb7","665fa666f4edccc3ad8de3c3","0","1","","","[2,4]","left","[0,2]","1","false","2662.7000000476837","0.37777777777777777","1166.1999999284744",""
"","","","","","jsShapes","10","75718","0.0-3.0-0.7","665f9ff8981f9a2e65a2cccc","5fddbd1d3986cc447456edb7","665fa666f4edccc3ad8de3c3","0","1","","","[0,1]","right","[4,1]","1","false","2208.7000000476837","1","1079.7999999523163",""
"","","","","","jsShapes","11","79501","0.0-3.0-0.8","665f9ff8981f9a2e65a2cccc","5fddbd1d3986cc447456edb7","665fa666f4edccc3ad8de3c3","0","1","","","[2,0]","right","[1,3]","1","false","2452.100000023842","0.3027777777777778","1316.8999999761581",""
"","","","","","jsShapes","12","82601","0.0-3.0-0.9","665f9ff8981f9a2e65a2cccc","5fddbd1d3986cc447456edb7","665fa666f4edccc3ad8de3c3","0","1","","","[0,1]","right","[1,3]","0","false","2092.0999999046326","1","999.1000000238419",""
"","","","","","jsShapes","13","86102","0.0-3.0-0.10","665f9ff8981f9a2e65a2cccc","5fddbd1d3986cc447456edb7","665fa666f4edccc3ad8de3c3","0","1","","","[2,2]","left","[1,0]","0","false","2444.899999976158","0.22499999999999998","1047.2000000476837",""
"","","","","","jsShapes","14","89269","0.0-3.0-0.11","665f9ff8981f9a2e65a2cccc","5fddbd1d3986cc447456edb7","665fa666f4edccc3ad8de3c3","0","1","","","[0,1]","left","[2,0]","1","false","2158.100000023842","1","1004.8999999761581",""
"","","","","","jsShapes","15","92319","0.0-3.0-0.12","665f9ff8981f9a2e65a2cccc","5fddbd1d3986cc447456edb7","665fa666f4edccc3ad8de3c3","0","1","","","[3,3]","left","[4,0]","0","false","2009.5","0.35","1034",""
"","","","","","jsShapes","16","95403","0.0-3.0-0.13","665f9ff8981f9a2e65a2cccc","5fddbd1d3986cc447456edb7","665fa666f4edccc3ad8de3c3","0","1","","","[0,1]","right","[1,0]","0","false","2082.899999976158","1","980.5",""
"","","","","","jsShapes","17","98586","0.0-3.0-0.14","665f9ff8981f9a2e65a2cccc","5fddbd1d3986cc447456edb7","665fa666f4edccc3ad8de3c3","0","1","","","[0,1]","left","[0,3]","0","false","2157.3000000715256","1","1006.1999999284744",""
"","","","","","jsShapes","18","103870","0.0-3.0-0.15","665f9ff8981f9a2e65a2cccc","5fddbd1d3986cc447456edb7","665fa666f4edccc3ad8de3c3","0","1","","","[4,0]","right","[1,2]","1","false","3883.5","0.19166666666666665","1389.6999999284744",""
"","","","","","instructions","19","109511","0.0-4.0","665f9ff8981f9a2e65a2cccc","5fddbd1d3986cc447456edb7","665fa666f4edccc3ad8de3c3","0","1","5641","[{""page_index"":0,""viewing_time"":5641}]","","","","","","","","",""
"","","","","","survey-multi-choice","20","117747","0.0-5.0-1.0-0.0","665f9ff8981f9a2e65a2cccc","5fddbd1d3986cc447456edb7","665fa666f4edccc3ad8de3c3","0","1","8234","","","","","{""multichoice_rare_shape"":""2. Much less likely than all other shapes.""}","","","","","[0]"
"","","","","","instructions","21","120901","0.0-6.0","665f9ff8981f9a2e65a2cccc","5fddbd1d3986cc447456edb7","665fa666f4edccc3ad8de3c3","0","1","3153","[{""page_index"":0,""viewing_time"":3153}]","","","","","","","","",""
"","","","","","jsShapes","22","126870","0.0-7.0-0.0","665f9ff8981f9a2e65a2cccc","5fddbd1d3986cc447456edb7","665fa666f4edccc3ad8de3c3","0","1","","","[1,3]","left","[5,0]","1","true","4418.200000047684","0.21666666666666667","1539.7000000476837",""
"","","","","","survey-text","23","133364","0.0-8.0","665f9ff8981f9a2e65a2cccc","5fddbd1d3986cc447456edb7","665fa666f4edccc3ad8de3c3","0","1","6491","","","","","{""worker_comments"":""""}","","","","",""
"","","","","","instructions","24","135674","0.0-9.0","665f9ff8981f9a2e65a2cccc","5fddbd1d3986cc447456edb7","665fa666f4edccc3ad8de3c3","0","1","2310","[{""page_index"":0,""viewing_time"":2310}]","","","","","","","","",""
"success","timeout","failed_images","failed_audio","failed_video","trial_type","trial_index","time_elapsed","internal_node_id","STUDY_ID","PROLIFIC_PID","SESSION_ID","practice_rare_shape_loops","comprehension_visits","rt","view_history","shapes","occluder","options","response","rare_option","RT","confidence","confidence_RT","question_order"
"true","false","[]","[]","[]","preload","0","175","0.0-0.0","665f9ff8981f9a2e65a2cccc","5a44c42b1ba496000102a3ed","665fb4716414def069e7fb94","0","1","","","","","","","","","","",""
"true","","","","","fullscreen","1","3602","0.0-1.0","665f9ff8981f9a2e65a2cccc","5a44c42b1ba496000102a3ed","665fb4716414def069e7fb94","0","1","2412","","","","","","","","","",""
"","","","","","instructions","2","44881","0.0-2.0","665f9ff8981f9a2e65a2cccc","5a44c42b1ba496000102a3ed","665fb4716414def069e7fb94","0","1","41278","[{""page_index"":0,""viewing_time"":5863},{""page_index"":1,""viewing_time"":23344},{""page_index"":2,""viewing_time"":7384},{""page_index"":3,""viewing_time"":2640},{""page_index"":4,""viewing_time"":2048}]","","","","","","","","",""
"","","","","","jsShapes","3","54082","0.0-3.0-0.0","665f9ff8981f9a2e65a2cccc","5a44c42b1ba496000102a3ed","665fb4716414def069e7fb94","0","1","","","[0,1]","left","[0,2]","0","false","6012","0.6929357267109452","3178.199999999255",""
"","","","","","jsShapes","4","63375","0.0-3.0-0.1","665f9ff8981f9a2e65a2cccc","5a44c42b1ba496000102a3ed","665fb4716414def069e7fb94","0","1","","","[0,1]","right","[1,2]","1","false","5932.699999999255","0.49930515346253757","3346.300000000745",""
"","","","","","jsShapes","5","70900","0.0-3.0-0.2","665f9ff8981f9a2e65a2cccc","5a44c42b1ba496000102a3ed","665fb4716414def069e7fb94","0","1","","","[4,0]","right","[0,1]","1","false","5496.599999997765","0.6394325419975694","2016.1000000014901",""
"","","","","","jsShapes","6","78156","0.0-3.0-0.3","665f9ff8981f9a2e65a2cccc","5a44c42b1ba496000102a3ed","665fb4716414def069e7fb94","0","1","","","[3,0]","left","[0,3]","1","false","4755.39999999851","1","2494.5",""
"","","","","","jsShapes","7","84363","0.0-3.0-0.4","665f9ff8981f9a2e65a2cccc","5a44c42b1ba496000102a3ed","665fb4716414def069e7fb94","0","1","","","[0,1]","left","[4,0]","0","false","4146.39999999851","0.611407064290563","2048.2000000029802",""
"","","","","","jsShapes","8","94856","0.0-3.0-0.5","665f9ff8981f9a2e65a2cccc","5a44c42b1ba496000102a3ed","665fb4716414def069e7fb94","0","1","","","[0,1]","right","[1,2]","1","false","8765.199999999255","0.33624782862177316","1718.2000000029802",""
"","","","","","jsShapes","9","100011","0.0-3.0-0.6","665f9ff8981f9a2e65a2cccc","5a44c42b1ba496000102a3ed","665fb4716414def069e7fb94","0","1","","","[3,3]","right","[2,1]","0","false","3479.2999999970198","0.700579038812856","1674",""
"","","","","","jsShapes","10","104966","0.0-3.0-0.7","665f9ff8981f9a2e65a2cccc","5a44c42b1ba496000102a3ed","665fb4716414def069e7fb94","0","1","","","[4,4]","left","[0,4]","0","false","3856","1","1084.199999999255",""
"","","","","","jsShapes","11","108737","0.0-3.0-0.8","665f9ff8981f9a2e65a2cccc","5a44c42b1ba496000102a3ed","665fb4716414def069e7fb94","0","1","","","[1,2]","left","[2,0]","1","false","2705.39999999851","1","1058.300000000745",""
"","","","","","jsShapes","12","112407","0.0-3.0-0.9","665f9ff8981f9a2e65a2cccc","5a44c42b1ba496000102a3ed","665fb4716414def069e7fb94","0","1","","","[1,0]","right","[1,3]","1","false","2223.300000000745","1","1432.0999999977648",""
"","","","","","jsShapes","13","116278","0.0-3.0-0.10","665f9ff8981f9a2e65a2cccc","5a44c42b1ba496000102a3ed","665fb4716414def069e7fb94","0","1","","","[0,1]","right","[1,0]","0","false","2776.89999999851","1","1090",""
"","","","","","jsShapes","14","124052","0.0-3.0-0.11","665f9ff8981f9a2e65a2cccc","5a44c42b1ba496000102a3ed","665fb4716414def069e7fb94","0","1","","","[0,1]","left","[0,4]","1","false","6042.900000002235","0.46873190505489426","1718",""
"","","","","","jsShapes","15","133128","0.0-3.0-0.12","665f9ff8981f9a2e65a2cccc","5a44c42b1ba496000102a3ed","665fb4716414def069e7fb94","0","1","","","[0,1]","right","[1,2]","1","false","7068.10000000149","0.47892298785744203","1994.199999999255",""
"","","","","","jsShapes","16","136815","0.0-3.0-0.13","665f9ff8981f9a2e65a2cccc","5a44c42b1ba496000102a3ed","665fb4716414def069e7fb94","0","1","","","[0,1]","left","[0,1]","0","false","2400.099999997765","1","1276.2000000029802",""
"","","","","","jsShapes","17","141320","0.0-3.0-0.14","665f9ff8981f9a2e65a2cccc","5a44c42b1ba496000102a3ed","665fb4716414def069e7fb94","0","1","","","[3,0]","right","[2,1]","0","false","2809.199999999255","0.6649102490039388","1692",""
"","","","","","jsShapes","18","147859","0.0-3.0-0.15","665f9ff8981f9a2e65a2cccc","5a44c42b1ba496000102a3ed","665fb4716414def069e7fb94","0","1","","","[4,4]","left","[1,0]","1","false","5200.900000002235","0.08656629995935283","1334.199999999255",""
"","","","","","instructions","19","157122","0.0-4.0","665f9ff8981f9a2e65a2cccc","5a44c42b1ba496000102a3ed","665fb4716414def069e7fb94","0","1","9262","[{""page_index"":0,""viewing_time"":9262}]","","","","","","","","",""
"","","","","","survey-multi-choice","20","162786","0.0-5.0-1.0-0.0","665f9ff8981f9a2e65a2cccc","5a44c42b1ba496000102a3ed","665fb4716414def069e7fb94","0","1","5663","","","","","{""multichoice_rare_shape"":""2. Much less likely than all other shapes.""}","","","","","[0]"
"","","","","","instructions","21","173577","0.0-6.0","665f9ff8981f9a2e65a2cccc","5a44c42b1ba496000102a3ed","665fb4716414def069e7fb94","0","1","10791","[{""page_index"":0,""viewing_time"":10791}]","","","","","","","","",""
"","","","","","jsShapes","22","187950","0.0-7.0-0.0","665f9ff8981f9a2e65a2cccc","5a44c42b1ba496000102a3ed","665fb4716414def069e7fb94","0","1","","","[3,4]","left","[5,0]","0","true","12175","1","2184.39999999851",""
"","","","","","survey-text","23","193102","0.0-8.0","665f9ff8981f9a2e65a2cccc","5a44c42b1ba496000102a3ed","665fb4716414def069e7fb94","0","1","5149","","","","","{""worker_comments"":""""}","","","","",""
"","","","","","instructions","24","195826","0.0-9.0","665f9ff8981f9a2e65a2cccc","5a44c42b1ba496000102a3ed","665fb4716414def069e7fb94","0","1","2724","[{""page_index"":0,""viewing_time"":2724}]","","","","","","","","",""
"success","timeout","failed_images","failed_audio","failed_video","trial_type","trial_index","time_elapsed","internal_node_id","STUDY_ID","PROLIFIC_PID","SESSION_ID","practice_rare_shape_loops","comprehension_visits","rt","view_history","shapes","occluder","options","response","rare_option","RT","confidence","confidence_RT","question_order"
"true","false","[]","[]","[]","preload","0","170","0.0-0.0","665f9ff8981f9a2e65a2cccc","614f70b55373b6760cb9d5c9","665fb46fbc3065fed261eecb","0","1","","","","","","","","","","",""
"true","","","","","fullscreen","1","3650","0.0-1.0","665f9ff8981f9a2e65a2cccc","614f70b55373b6760cb9d5c9","665fb46fbc3065fed261eecb","0","1","2471","","","","","","","","","",""
"","","","","","instructions","2","77663","0.0-2.0","665f9ff8981f9a2e65a2cccc","614f70b55373b6760cb9d5c9","665fb46fbc3065fed261eecb","0","1","74012","[{""page_index"":0,""viewing_time"":6980},{""page_index"":1,""viewing_time"":36296},{""page_index"":2,""viewing_time"":26168},{""page_index"":3,""viewing_time"":3072},{""page_index"":4,""viewing_time"":1496}]","","","","","","","","",""
"","","","","","jsShapes","3","131910","0.0-3.0-0.0","665f9ff8981f9a2e65a2cccc","614f70b55373b6760cb9d5c9","665fb46fbc3065fed261eecb","0","1","","","[1,4]","right","[1,0]","1","false","48226.30000001192","0.4883333333333333","6007.800000011921",""
"","","","","","jsShapes","4","138832","0.0-3.0-0.1","665f9ff8981f9a2e65a2cccc","614f70b55373b6760cb9d5c9","665fb46fbc3065fed261eecb","0","1","","","[0,1]","left","[1,0]","1","false","5341.900000035763","1","1561.7999999523163",""
"","","","","","jsShapes","5","145905","0.0-3.0-0.2","665f9ff8981f9a2e65a2cccc","614f70b55373b6760cb9d5c9","665fb46fbc3065fed261eecb","0","1","","","[0,1]","right","[4,1]","1","false","5533.400000035763","1","1533.699999988079",""
"","","","","","jsShapes","6","162886","0.0-3.0-0.3","665f9ff8981f9a2e65a2cccc","614f70b55373b6760cb9d5c9","665fb46fbc3065fed261eecb","0","1","","","[2,0]","left","[0,2]","1","false","14404.800000011921","0","2567.5",""
"","","","","","jsShapes","7","171627","0.0-3.0-0.4","665f9ff8981f9a2e65a2cccc","614f70b55373b6760cb9d5c9","665fb46fbc3065fed261eecb","0","1","","","[0,1]","right","[1,2]","0","false","6743.200000047684","1","1991.3999999761581",""
"","","","","","jsShapes","8","181835","0.0-3.0-0.5","665f9ff8981f9a2e65a2cccc","614f70b55373b6760cb9d5c9","665fb46fbc3065fed261eecb","0","1","","","[3,2]","right","[3,1]","1","false","8787","0","1415.5",""
"","","","","","jsShapes","9","188191","0.0-3.0-0.6","665f9ff8981f9a2e65a2cccc","614f70b55373b6760cb9d5c9","665fb46fbc3065fed261eecb","0","1","","","[0,1]","left","[0,4]","0","false","4922.599999964237","1","1427.1000000238419",""
"","","","","","jsShapes","10","194663","0.0-3.0-0.7","665f9ff8981f9a2e65a2cccc","614f70b55373b6760cb9d5c9","665fb46fbc3065fed261eecb","0","1","","","[3,3]","left","[0,4]","1","false","5223.200000047684","0","1235",""
"","","","","","jsShapes","11","201018","0.0-3.0-0.8","665f9ff8981f9a2e65a2cccc","614f70b55373b6760cb9d5c9","665fb46fbc3065fed261eecb","0","1","","","[0,1]","right","[1,0]","0","false","5070.700000047684","1","1271",""
"","","","","","jsShapes","12","212861","0.0-3.0-0.9","665f9ff8981f9a2e65a2cccc","614f70b55373b6760cb9d5c9","665fb46fbc3065fed261eecb","0","1","","","[2,2]","left","[0,2]","1","false","9739.800000011921","0.7633333333333333","2088.899999976158",""
"","","","","","jsShapes","13","217315","0.0-3.0-0.10","665f9ff8981f9a2e65a2cccc","614f70b55373b6760cb9d5c9","665fb46fbc3065fed261eecb","0","1","","","[0,1]","left","[3,0]","1","false","3064.400000035763","1","1378.7999999523163",""
"","","","","","jsShapes","14","224638","0.0-3.0-0.11","665f9ff8981f9a2e65a2cccc","614f70b55373b6760cb9d5c9","665fb46fbc3065fed261eecb","0","1","","","[1,3]","right","[1,4]","1","false","5522.800000011921","0.5349999999999999","1792.699999988079",""
"","","","","","jsShapes","15","229075","0.0-3.0-0.12","665f9ff8981f9a2e65a2cccc","614f70b55373b6760cb9d5c9","665fb46fbc3065fed261eecb","0","1","","","[0,1]","left","[0,3]","0","false","3128","1","1306.699999988079",""
"","","","","","jsShapes","16","236948","0.0-3.0-0.13","665f9ff8981f9a2e65a2cccc","614f70b55373b6760cb9d5c9","665fb46fbc3065fed261eecb","0","1","","","[1,4]","left","[2,0]","0","false","6802.900000035763","0","1060.5",""
"","","","","","jsShapes","17","242520","0.0-3.0-0.14","665f9ff8981f9a2e65a2cccc","614f70b55373b6760cb9d5c9","665fb46fbc3065fed261eecb","0","1","","","[0,1]","right","[2,1]","1","false","4489.5","1","1080.699999988079",""
"","","","","","jsShapes","18","247707","0.0-3.0-0.15","665f9ff8981f9a2e65a2cccc","614f70b55373b6760cb9d5c9","665fb46fbc3065fed261eecb","0","1","","","[2,3]","right","[2,1]","1","false","4158.300000011921","0","1026.5",""
"","","","","","instructions","19","263991","0.0-4.0","665f9ff8981f9a2e65a2cccc","614f70b55373b6760cb9d5c9","665fb46fbc3065fed261eecb","0","1","16284","[{""page_index"":0,""viewing_time"":16284}]","","","","","","","","",""
"","","","","","survey-multi-choice","20","272911","0.0-5.0-1.0-0.0","665f9ff8981f9a2e65a2cccc","614f70b55373b6760cb9d5c9","665fb46fbc3065fed261eecb","0","1","8919","","","","","{""multichoice_rare_shape"":""2. Much less likely than all other shapes.""}","","","","","[0]"
"","","","","","instructions","21","281007","0.0-6.0","665f9ff8981f9a2e65a2cccc","614f70b55373b6760cb9d5c9","665fb46fbc3065fed261eecb","0","1","8095","[{""page_index"":0,""viewing_time"":8095}]","","","","","","","","",""
"","","","","","jsShapes","22","294130","0.0-7.0-0.0","665f9ff8981f9a2e65a2cccc","614f70b55373b6760cb9d5c9","665fb46fbc3065fed261eecb","0","1","","","[3,3]","left","[5,0]","0","true","9263.300000011921","0.7133333333333334","3845.899999976158",""
"","","","","","survey-text","23","298870","0.0-8.0","665f9ff8981f9a2e65a2cccc","614f70b55373b6760cb9d5c9","665fb46fbc3065fed261eecb","0","1","4737","","","","","{""worker_comments"":""""}","","","","",""
"","","","","","instructions","24","304439","0.0-9.0","665f9ff8981f9a2e65a2cccc","614f70b55373b6760cb9d5c9","665fb46fbc3065fed261eecb","0","1","5569","[{""page_index"":0,""viewing_time"":5569}]","","","","","","","","",""
"success","timeout","failed_images","failed_audio","failed_video","trial_type","trial_index","time_elapsed","internal_node_id","STUDY_ID","PROLIFIC_PID","SESSION_ID","practice_rare_shape_loops","comprehension_visits","rt","view_history","shapes","occluder","options","response","rare_option","RT","confidence","confidence_RT","question_order"
"true","false","[]","[]","[]","preload","0","134","0.0-0.0","665f9ff8981f9a2e65a2cccc","651dc3f3ce1efb640a5ea246","665fa67c1fb76e20cd79a7fb","0","1","","","","","","","","","","",""
"true","","","","","fullscreen","1","4108","0.0-1.0","665f9ff8981f9a2e65a2cccc","651dc3f3ce1efb640a5ea246","665fa67c1fb76e20cd79a7fb","0","1","2962","","","","","","","","","",""
"","","","","","instructions","2","41524","0.0-2.0","665f9ff8981f9a2e65a2cccc","651dc3f3ce1efb640a5ea246","665fa67c1fb76e20cd79a7fb","0","1","37415","[{""page_index"":0,""viewing_time"":5640},{""page_index"":1,""viewing_time"":23039},{""page_index"":2,""viewing_time"":6704},{""page_index"":3,""viewing_time"":1232},{""page_index"":4,""viewing_time"":800}]","","","","","","","","",""
"","","","","","jsShapes","3","81351","0.0-3.0-0.0","665f9ff8981f9a2e65a2cccc","651dc3f3ce1efb640a5ea246","665fa67c1fb76e20cd79a7fb","0","1","","","[3,4]","right","[1,2]","1","false","34566.90000009537","0.17592592592592593","5252.099999904633",""
"","","","","","jsShapes","4","91883","0.0-3.0-0.1","665f9ff8981f9a2e65a2cccc","651dc3f3ce1efb640a5ea246","665fa67c1fb76e20cd79a7fb","0","1","","","[0,1]","left","[0,2]","0","false","8498.599999904633","1","2017.4000000953674",""
"","","","","","jsShapes","5","100635","0.0-3.0-0.2","665f9ff8981f9a2e65a2cccc","651dc3f3ce1efb640a5ea246","665fa67c1fb76e20cd79a7fb","0","1","","","[0,1]","right","[2,1]","1","false","6832","1","1905.6000001430511",""
"","","","","","jsShapes","6","114079","0.0-3.0-0.3","665f9ff8981f9a2e65a2cccc","651dc3f3ce1efb640a5ea246","665fa67c1fb76e20cd79a7fb","0","1","","","[4,2]","left","[0,4]","1","false","11849.5","0.8666666666666667","1592.7000000476837",""
"","","","","","jsShapes","7","122582","0.0-3.0-0.4","665f9ff8981f9a2e65a2cccc","651dc3f3ce1efb640a5ea246","665fa67c1fb76e20cd79a7fb","0","1","","","[1,0]","left","[0,3]","1","false","6674.299999952316","1","1818.0999999046326",""
"","","","","","jsShapes","8","130851","0.0-3.0-0.5","665f9ff8981f9a2e65a2cccc","651dc3f3ce1efb640a5ea246","665fa67c1fb76e20cd79a7fb","0","1","","","[0,1]","right","[3,1]","1","false","6862.300000190735","1","1395.7999999523163",""
"","","","","","jsShapes","9","138322","0.0-3.0-0.6","665f9ff8981f9a2e65a2cccc","651dc3f3ce1efb640a5ea246","665fa67c1fb76e20cd79a7fb","0","1","","","[0,1]","left","[4,0]","1","false","5833.700000047684","1","1636.2000000476837",""
"","","","","","jsShapes","10","150635","0.0-3.0-0.7","665f9ff8981f9a2e65a2cccc","651dc3f3ce1efb640a5ea246","665fa67c1fb76e20cd79a7fb","0","1","","","[1,3]","right","[2,1]","0","false","10985.200000047684","0.8166666666666667","1309.9000000953674",""
"","","","","","jsShapes","11","161982","0.0-3.0-0.8","665f9ff8981f9a2e65a2cccc","651dc3f3ce1efb640a5ea246","665fa67c1fb76e20cd79a7fb","0","1","","","[3,2]","right","[1,0]","0","false","9633.400000095367","0.9981481481481481","1709.5999999046326",""
"","","","","","jsShapes","12","169653","0.0-3.0-0.9","665f9ff8981f9a2e65a2cccc","651dc3f3ce1efb640a5ea246","665fa67c1fb76e20cd79a7fb","0","1","","","[0,1]","left","[4,0]","1","false","5991.700000047684","1","1667.2999999523163",""
"","","","","","jsShapes","13","177540","0.0-3.0-0.10","665f9ff8981f9a2e65a2cccc","651dc3f3ce1efb640a5ea246","665fa67c1fb76e20cd79a7fb","0","1","","","[0,1]","right","[1,3]","0","false","6478.5","1","1396",""
"","","","","","jsShapes","14","215094","0.0-3.0-0.11","665f9ff8981f9a2e65a2cccc","651dc3f3ce1efb640a5ea246","665fa67c1fb76e20cd79a7fb","0","1","","","[2,0]","left","[1,0]","0","false","35824.199999809265","0.7851851851851852","1725.1000001430511",""
"","","","","","jsShapes","15","224362","0.0-3.0-0.12","665f9ff8981f9a2e65a2cccc","651dc3f3ce1efb640a5ea246","665fa67c1fb76e20cd79a7fb","0","1","","","[4,4]","right","[4,1]","0","false","7762","0.7925925925925926","1488.7999999523163",""
"","","","","","jsShapes","16","230335","0.0-3.0-0.13","665f9ff8981f9a2e65a2cccc","651dc3f3ce1efb640a5ea246","665fa67c1fb76e20cd79a7fb","0","1","","","[0,1]","left","[0,4]","0","false","4745.099999904633","1","1226.5999999046326",""
"","","","","","jsShapes","17","237557","0.0-3.0-0.14","665f9ff8981f9a2e65a2cccc","651dc3f3ce1efb640a5ea246","665fa67c1fb76e20cd79a7fb","0","1","","","[3,0]","left","[0,4]","1","false","5959.700000047684","1","1250.9000000953674",""
"","","","","","jsShapes","18","243331","0.0-3.0-0.15","665f9ff8981f9a2e65a2cccc","651dc3f3ce1efb640a5ea246","665fa67c1fb76e20cd79a7fb","0","1","","","[0,1]","right","[1,2]","0","false","4151.200000047684","1","1607.7999999523163",""
"","","","","","instructions","19","264959","0.0-4.0","665f9ff8981f9a2e65a2cccc","651dc3f3ce1efb640a5ea246","665fa67c1fb76e20cd79a7fb","0","1","21628","[{""page_index"":0,""viewing_time"":21627}]","","","","","","","","",""
"","","","","","survey-multi-choice","20","270652","0.0-5.0-1.0-0.0","665f9ff8981f9a2e65a2cccc","651dc3f3ce1efb640a5ea246","665fa67c1fb76e20cd79a7fb","0","1","5691","","","","","{""multichoice_rare_shape"":""2. Much less likely than all other shapes.""}","","","","","[0]"
"","","","","","instructions","21","281074","0.0-6.0","665f9ff8981f9a2e65a2cccc","651dc3f3ce1efb640a5ea246","665fa67c1fb76e20cd79a7fb","0","1","10420","[{""page_index"":0,""viewing_time"":10420}]","","","","","","","","",""
"","","","","","jsShapes","22","290002","0.0-7.0-0.0","665f9ff8981f9a2e65a2cccc","651dc3f3ce1efb640a5ea246","665fa67c1fb76e20cd79a7fb","0","1","","","[4,4]","left","[0,5]","1","true","7440.5","1","1478.7999999523163",""
"","","","","","survey-text","23","299331","0.0-8.0","665f9ff8981f9a2e65a2cccc","651dc3f3ce1efb640a5ea246","665fa67c1fb76e20cd79a7fb","0","1","9325","","","","","{""worker_comments"":""""}","","","","",""
"","","","","","instructions","24","301674","0.0-9.0","665f9ff8981f9a2e65a2cccc","651dc3f3ce1efb640a5ea246","665fa67c1fb76e20cd79a7fb","0","1","2342","[{""page_index"":0,""viewing_time"":2342}]","","","","","","","","",""
